STUDYID,DOMAIN,USUBJID,AESEQ,AESPID,AETERM,AELLT,AELLTCD,AEDECOD,AEPTCD,AEHLT,AEHLTCD,AEHLGT,AEHLGTCD,AEBODSYS,AEBDSYCD,AESOC,AESOCCD,AESEV,AESER,AEACN,AEREL,AEOUT,AESCAN,AESCONG,AESDISAB,AESDTH,AESHOSP,AESLIFE,AESOD,AEDTC,AESTDTC,AEENDTC,AESTDY,AEENDY,AGE,SEX,RACE,ARMCD,ARM,DTHFL,CONMEDS,NARRATIVE,IS_SERIOUS,SEV_GRADE,N_ENTITIES,TOPIC,TOPIC_PROB
CDISCPILOT01,AE,01-701-1015,1.0,E07,APPLICATION SITE ERYTHEMA,APPLICATION SITE REDNESS,,APPLICATION SITE ERYTHEMA,,HLT_0617,,HLGT_0152,,GENERAL DISORDERS AND ADMINISTRATION SITE CONDITIONS,,GENERAL DISORDERS AND ADMINISTRATION SITE CONDITIONS,,MILD,N,,PROBABLE,NOT RECOVERED/NOT RESOLVED,N,N,N,N,N,N,N,2014-01-16,2014-01-03,,2.0,,63.0,F,WHITE,Pbo,Placebo,,ASPIRIN; CALCIUM; HYDROCORTISONE; NEOSPORIN /USA/; PREMARIN; TYLENOL,The subject experienced application site erythema. affecting the general disorders and administration site conditions. Severity: mild. Relationship to study drug: probable. Outcome: not recovered/not resolved. Treatment arm: placebo.,False,1,14,9,0.9978384749021861
CDISCPILOT01,AE,01-701-1015,2.0,E08,APPLICATION SITE PRURITUS,APPLICATION SITE ITCHING,,APPLICATION SITE PRURITUS,,HLT_0317,,HLGT_0338,,GENERAL DISORDERS AND ADMINISTRATION SITE CONDITIONS,,GENERAL DISORDERS AND ADMINISTRATION SITE CONDITIONS,,MILD,N,,PROBABLE,NOT RECOVERED/NOT RESOLVED,N,N,N,N,N,N,N,2014-01-16,2014-01-03,,2.0,,63.0,F,WHITE,Pbo,Placebo,,ASPIRIN; CALCIUM; HYDROCORTISONE; NEOSPORIN /USA/; PREMARIN; TYLENOL,The subject experienced application site pruritus. affecting the general disorders and administration site conditions. Severity: mild. Relationship to study drug: probable. Outcome: not recovered/not resolved. Treatment arm: placebo.,False,1,14,5,0.9606190772024771
CDISCPILOT01,AE,01-701-1015,3.0,E06,DIARRHOEA,DIARRHEA,,DIARRHOEA,,HLT_0148,,HLGT_0588,,GASTROINTESTINAL DISORDERS,,GASTROINTESTINAL DISORDERS,,MILD,N,,REMOTE,RECOVERED/RESOLVED,N,N,N,N,N,N,N,2014-01-16,2014-01-09,2014-01-11,8.0,10.0,63.0,F,WHITE,Pbo,Placebo,,ASPIRIN; CALCIUM; HYDROCORTISONE; NEOSPORIN /USA/; PREMARIN; TYLENOL,The subject experienced diarrhoea. affecting the gastrointestinal disorders. Severity: mild. Relationship to study drug: remote. Outcome: recovered/resolved. Treatment arm: placebo.,False,1,13,1,0.9721984411685333
CDISCPILOT01,AE,01-701-1023,3.0,E10,ATRIOVENTRICULAR BLOCK SECOND DEGREE,AV BLOCK SECOND DEGREE,,ATRIOVENTRICULAR BLOCK SECOND DEGREE,,HLT_0415,,HLGT_0086,,CARDIAC DISORDERS,,CARDIAC DISORDERS,,MILD,N,,POSSIBLE,NOT RECOVERED/NOT RESOLVED,N,N,N,N,N,N,N,2012-08-27,2012-08-26,,22.0,,64.0,M,WHITE,Pbo,Placebo,,ASPIRIN; MYLANTA; TUMS,The subject experienced atrioventricular block second degree. affecting the cardiac disorders. Severity: mild. Relationship to study drug: possible. Outcome: not recovered/not resolved. Treatment arm: placebo.,False,1,12,35,0.32894573787398745
CDISCPILOT01,AE,01-701-1023,1.0,E08,ERYTHEMA,ERYTHEMA,,ERYTHEMA,,HLT_0284,,HLGT_0192,,SKIN AND SUBCUTANEOUS TISSUE DISORDERS,,SKIN AND SUBCUTANEOUS TISSUE DISORDERS,,MILD,N,,POSSIBLE,NOT RECOVERED/NOT RESOLVED,N,N,N,N,N,N,N,2012-08-27,2012-08-07,2012-08-30,3.0,26.0,64.0,M,WHITE,Pbo,Placebo,,ASPIRIN; MYLANTA; TUMS,The subject experienced erythema. affecting the skin and subcutaneous tissue disorders. Severity: mild. Relationship to study drug: possible. Outcome: not recovered/not resolved. Treatment arm: placebo.,False,1,13,7,0.21826492932194042
CDISCPILOT01,AE,01-701-1023,2.0,E09,ERYTHEMA,LOCALIZED ERYTHEMA,,ERYTHEMA,,HLT_0284,,HLGT_0192,,SKIN AND SUBCUTANEOUS TISSUE DISORDERS,,SKIN AND SUBCUTANEOUS TISSUE DISORDERS,,MODERATE,N,,PROBABLE,NOT RECOVERED/NOT RESOLVED,N,N,N,N,N,N,N,2012-08-27,2012-08-07,,3.0,,64.0,M,WHITE,Pbo,Placebo,,ASPIRIN; MYLANTA; TUMS,The subject experienced erythema. affecting the skin and subcutaneous tissue disorders. Severity: moderate. Relationship to study drug: probable. Outcome: not recovered/not resolved. Treatment arm: placebo.,False,2,13,7,0.8950505196731174
CDISCPILOT01,AE,01-701-1023,4.0,E08,ERYTHEMA,ERYTHEMA,,ERYTHEMA,,HLT_0284,,HLGT_0192,,SKIN AND SUBCUTANEOUS TISSUE DISORDERS,,SKIN AND SUBCUTANEOUS TISSUE DISORDERS,,MILD,N,,POSSIBLE,RECOVERED/RESOLVED,N,N,N,N,N,N,N,2012-09-02,2012-08-07,2012-08-30,3.0,26.0,64.0,M,WHITE,Pbo,Placebo,,ASPIRIN; MYLANTA; TUMS,The subject experienced erythema. affecting the skin and subcutaneous tissue disorders. Severity: mild. Relationship to study drug: possible. Outcome: recovered/resolved. Treatment arm: placebo.,False,1,13,7,0.08990845879169751
CDISCPILOT01,AE,01-701-1028,1.0,E04,APPLICATION SITE ERYTHEMA,APPLICATION SITE ERYTHEMA,,APPLICATION SITE ERYTHEMA,,HLT_0617,,HLGT_0152,,GENERAL DISORDERS AND ADMINISTRATION SITE CONDITIONS,,GENERAL DISORDERS AND ADMINISTRATION SITE CONDITIONS,,MILD,N,,POSSIBLE,NOT RECOVERED/NOT RESOLVED,N,N,N,N,N,N,N,2013-08-01,2013-07-21,,3.0,,71.0,M,WHITE,Xan_Hi,Xanomeline High Dose,,CENTRUM; HYDROCORTISONE,The subject experienced application site erythema. affecting the general disorders and administration site conditions. Severity: mild. Relationship to study drug: possible. Outcome: not recovered/not resolved. Treatment arm: xanomeline high dose.,False,1,15,9,0.7867486363912799
CDISCPILOT01,AE,01-701-1028,2.0,E05,APPLICATION SITE PRURITUS,APPLICATION SITE ITCHING,,APPLICATION SITE PRURITUS,,HLT_0317,,HLGT_0338,,GENERAL DISORDERS AND ADMINISTRATION SITE CONDITIONS,,GENERAL DISORDERS AND ADMINISTRATION SITE CONDITIONS,,MILD,N,,PROBABLE,NOT RECOVERED/NOT RESOLVED,N,N,N,N,N,N,N,2013-08-14,2013-08-08,,21.0,,71.0,M,WHITE,Xan_Hi,Xanomeline High Dose,,CENTRUM; HYDROCORTISONE,The subject experienced application site pruritus. affecting the general disorders and administration site conditions. Severity: mild. Relationship to study drug: probable. Outcome: not recovered/not resolved. Treatment arm: xanomeline high dose.,False,1,15,5,0.9717494688934136
CDISCPILOT01,AE,01-701-1034,1.0,E08,APPLICATION SITE PRURITUS,APPLICATION SITE ITCHING,,APPLICATION SITE PRURITUS,,HLT_0317,,HLGT_0338,,GENERAL DISORDERS AND ADMINISTRATION SITE CONDITIONS,,GENERAL DISORDERS AND ADMINISTRATION SITE CONDITIONS,,MILD,N,,PROBABLE,NOT RECOVERED/NOT RESOLVED,N,N,N,N,N,N,N,2014-09-25,2014-08-27,,58.0,,77.0,F,WHITE,Xan_Hi,Xanomeline High Dose,,CALCIUM; ESTROGEN NOS; EX-LAX; HYDROCORTISONE; IRON; LEVOTHROID; VITAMIN C; VITAMIN E,The subject experienced application site pruritus. affecting the general disorders and administration site conditions. Severity: mild. Relationship to study drug: probable. Outcome: not recovered/not resolved. Treatment arm: xanomeline high dose.,False,1,15,-1,0.0
CDISCPILOT01,AE,01-701-1034,2.0,E07,FATIGUE,FATIGUE,,FATIGUE,,HLT_0043,,HLGT_0181,,GENERAL DISORDERS AND ADMINISTRATION SITE CONDITIONS,,GENERAL DISORDERS AND ADMINISTRATION SITE CONDITIONS,,MILD,N,,POSSIBLE,NOT RECOVERED/NOT RESOLVED,N,N,N,N,N,N,N,2014-11-18,2014-11-02,,125.0,,77.0,F,WHITE,Xan_Hi,Xanomeline High Dose,,CALCIUM; ESTROGEN NOS; EX-LAX; HYDROCORTISONE; IRON; LEVOTHROID; VITAMIN C; VITAMIN E,The subject experienced fatigue. affecting the general disorders and administration site conditions. Severity: mild. Relationship to study drug: possible. Outcome: not recovered/not resolved. Treatment arm: xanomeline high dose.,False,1,14,23,0.09588872703232719
CDISCPILOT01,AE,01-701-1047,4.0,E09,BUNDLE BRANCH BLOCK LEFT,LEFT BUNDLE BRANCH BLOCK,,BUNDLE BRANCH BLOCK LEFT,,HLT_0281,,HLGT_0721,,CARDIAC DISORDERS,,CARDIAC DISORDERS,,MILD,N,,NONE,NOT RECOVERED/NOT RESOLVED,N,N,N,N,N,N,N,2013-03-10,2013-03-10,,27.0,,85.0,F,WHITE,Pbo,Placebo,,ALEVE; CENTRUM; FELDENE; PAPAYA; PSORCON; ROBITUSSIN-DM; SUDAFED; SYNTHROID,The subject experienced bundle branch block left. affecting the cardiac disorders. Severity: mild. Relationship to study drug: none. Outcome: not recovered/not resolved. Treatment arm: placebo.,False,1,12,4,0.15279865820852248
CDISCPILOT01,AE,01-701-1047,1.0,E06,HIATUS HERNIA,HERNIA HIATAL,,HIATUS HERNIA,,HLT_0159,,HLGT_0109,,GASTROINTESTINAL DISORDERS,,GASTROINTESTINAL DISORDERS,,MODERATE,N,,NONE,NOT RECOVERED/NOT RESOLVED,N,N,N,N,N,N,N,2013-02-12,2013-02-12,2013-02-12,1.0,1.0,85.0,F,WHITE,Pbo,Placebo,,ALEVE; CENTRUM; FELDENE; PAPAYA; PSORCON; ROBITUSSIN-DM; SUDAFED; SYNTHROID,The subject experienced hiatus hernia. affecting the gastrointestinal disorders. Severity: moderate. Relationship to study drug: none. Outcome: not recovered/not resolved. Treatment arm: placebo.,False,2,12,1,0.2135842826908326
CDISCPILOT01,AE,01-701-1047,2.0,E06,HIATUS HERNIA,HERNIA HIATAL,,HIATUS HERNIA,,HLT_0159,,HLGT_0109,,GASTROINTESTINAL DISORDERS,,GASTROINTESTINAL DISORDERS,,MODERATE,N,,NONE,RECOVERED/RESOLVED,N,N,N,N,N,N,N,2013-02-25,2013-02-12,2013-02-12,1.0,1.0,85.0,F,WHITE,Pbo,Placebo,,ALEVE; CENTRUM; FELDENE; PAPAYA; PSORCON; ROBITUSSIN-DM; SUDAFED; SYNTHROID,The subject experienced hiatus hernia. affecting the gastrointestinal disorders. Severity: moderate. Relationship to study drug: none. Outcome: recovered/resolved. Treatment arm: placebo.,False,2,12,1,0.2223438454490094
CDISCPILOT01,AE,01-701-1047,3.0,E08,UPPER RESPIRATORY TRACT INFECTION,UPPER RESPIRATORY INFECTION,,UPPER RESPIRATORY TRACT INFECTION,,HLT_0520,,HLGT_0489,,INFECTIONS AND INFESTATIONS,,INFECTIONS AND INFESTATIONS,,MILD,N,,NONE,NOT RECOVERED/NOT RESOLVED,N,N,N,N,N,N,N,2013-03-10,2013-03-06,,23.0,,85.0,F,WHITE,Pbo,Placebo,,ALEVE; CENTRUM; FELDENE; PAPAYA; PSORCON; ROBITUSSIN-DM; SUDAFED; SYNTHROID,The subject experienced upper respiratory tract infection. affecting the infections and infestations. Severity: mild. Relationship to study drug: none. Outcome: not recovered/not resolved. Treatment arm: placebo.,False,1,13,6,1.0
CDISCPILOT01,AE,01-701-1097,4.0,E06,APPLICATION SITE PRURITUS,APPLICATION SITE ITCHING,,APPLICATION SITE PRURITUS,,HLT_0317,,HLGT_0338,,GENERAL DISORDERS AND ADMINISTRATION SITE CONDITIONS,,GENERAL DISORDERS AND ADMINISTRATION SITE CONDITIONS,,MILD,N,,POSSIBLE,NOT RECOVERED/NOT RESOLVED,N,N,N,N,N,N,N,2014-02-26,2014-02-21,,52.0,,68.0,M,WHITE,Xan_Lo,Xanomeline Low Dose,,CENTRUM; HYDROCORTISONE,The subject experienced application site pruritus. affecting the general disorders and administration site conditions. Severity: mild. Relationship to study drug: possible. Outcome: not recovered/not resolved. Treatment arm: xanomeline low dose.,False,1,15,5,1.0
CDISCPILOT01,AE,01-701-1097,10.0,E06,APPLICATION SITE PRURITUS,APPLICATION SITE ITCHING,,APPLICATION SITE PRURITUS,,HLT_0317,,HLGT_0338,,GENERAL DISORDERS AND ADMINISTRATION SITE CONDITIONS,,GENERAL DISORDERS AND ADMINISTRATION SITE CONDITIONS,,MODERATE,N,,POSSIBLE,NOT RECOVERED/NOT RESOLVED,N,N,N,N,N,N,N,2014-05-21,2014-02-21,,52.0,,68.0,M,WHITE,Xan_Lo,Xanomeline Low Dose,,CENTRUM; HYDROCORTISONE,The subject experienced application site pruritus. affecting the general disorders and administration site conditions. Severity: moderate. Relationship to study drug: possible. Outcome: not recovered/not resolved. Treatment arm: xanomeline low dose.,False,2,15,5,1.0
CDISCPILOT01,AE,01-701-1097,3.0,E07,APPLICATION SITE VESICLES,APPLICATION SITE BLISTER,,APPLICATION SITE VESICLES,,HLT_0180,,HLGT_0576,,GENERAL DISORDERS AND ADMINISTRATION SITE CONDITIONS,,GENERAL DISORDERS AND ADMINISTRATION SITE CONDITIONS,,MILD,N,,PROBABLE,RECOVERED/RESOLVED,N,N,N,N,N,N,N,2014-02-26,2014-02-20,2014-02-22,51.0,53.0,68.0,M,WHITE,Xan_Lo,Xanomeline Low Dose,,CENTRUM; HYDROCORTISONE,The subject experienced application site vesicles. affecting the general disorders and administration site conditions. Severity: mild. Relationship to study drug: probable. Outcome: recovered/resolved. Treatment arm: xanomeline low dose.,False,1,15,18,0.3134789030832862
CDISCPILOT01,AE,01-701-1097,1.0,E04,ERYTHEMA,ERYTHEMA,,ERYTHEMA,,HLT_0284,,HLGT_0192,,SKIN AND SUBCUTANEOUS TISSUE DISORDERS,,SKIN AND SUBCUTANEOUS TISSUE DISORDERS,,MILD,N,,POSSIBLE,NOT RECOVERED/NOT RESOLVED,N,N,N,N,N,N,N,2014-01-15,2014-01-03,,3.0,,68.0,M,WHITE,Xan_Lo,Xanomeline Low Dose,,CENTRUM; HYDROCORTISONE,The subject experienced erythema. affecting the skin and subcutaneous tissue disorders. Severity: mild. Relationship to study drug: possible. Outcome: not recovered/not resolved. Treatment arm: xanomeline low dose.,False,1,14,7,1.0
CDISCPILOT01,AE,01-701-1097,9.0,E11,NASAL CONGESTION,NASAL CONGESTION,,NASAL CONGESTION,,HLT_0118,,HLGT_0549,,"RESPIRATORY, THORACIC AND MEDIASTINAL DISORDERS",,"RESPIRATORY, THORACIC AND MEDIASTINAL DISORDERS",,MILD,N,,NONE,RECOVERED/RESOLVED,N,N,N,N,N,N,N,2014-04-23,2014-04-19,2014-04-22,109.0,112.0,68.0,M,WHITE,Xan_Lo,Xanomeline Low Dose,,CENTRUM; HYDROCORTISONE,"The subject experienced nasal congestion. affecting the respiratory, thoracic and mediastinal disorders. Severity: mild. Relationship to study drug: none. Outcome: recovered/resolved. Treatment arm: xanomeline low dose.",False,1,15,6,1.0
CDISCPILOT01,AE,01-701-1097,8.0,E10,PHARYNGOLARYNGEAL PAIN,SORE THROAT,,PHARYNGOLARYNGEAL PAIN,,HLT_0130,,HLGT_0402,,"RESPIRATORY, THORACIC AND MEDIASTINAL DISORDERS",,"RESPIRATORY, THORACIC AND MEDIASTINAL DISORDERS",,MILD,N,,NONE,RECOVERED/RESOLVED,N,N,N,N,N,N,N,2014-04-23,2014-04-19,2014-04-22,109.0,112.0,68.0,M,WHITE,Xan_Lo,Xanomeline Low Dose,,CENTRUM; HYDROCORTISONE,"The subject experienced pharyngolaryngeal pain. affecting the respiratory, thoracic and mediastinal disorders. Severity: mild. Relationship to study drug: none. Outcome: recovered/resolved. Treatment arm: xanomeline low dose.",False,1,15,6,0.9890445148572679
CDISCPILOT01,AE,01-701-1097,2.0,E05,PRURITUS GENERALISED,GENERALIZED PRURITUS,,PRURITUS GENERALISED,,HLT_0123,,HLGT_0689,,SKIN AND SUBCUTANEOUS TISSUE DISORDERS,,SKIN AND SUBCUTANEOUS TISSUE DISORDERS,,MODERATE,N,,POSSIBLE,RECOVERED/RESOLVED,N,N,N,N,N,N,N,2014-02-26,2014-02-20,2014-02-20,51.0,51.0,68.0,M,WHITE,Xan_Lo,Xanomeline Low Dose,,CENTRUM; HYDROCORTISONE,The subject experienced pruritus generalised. affecting the skin and subcutaneous tissue disorders. Severity: moderate. Relationship to study drug: possible. Outcome: recovered/resolved. Treatment arm: xanomeline low dose.,False,2,14,-1,0.0
CDISCPILOT01,AE,01-701-1097,5.0,E08,PRURITUS GENERALISED,GENERALIZED PRURITUS,,PRURITUS GENERALISED,,HLT_0123,,HLGT_0689,,SKIN AND SUBCUTANEOUS TISSUE DISORDERS,,SKIN AND SUBCUTANEOUS TISSUE DISORDERS,,MODERATE,N,,POSSIBLE,RECOVERED/RESOLVED,N,N,N,N,N,N,N,2014-03-26,2014-03-21,2014-03-21,80.0,80.0,68.0,M,WHITE,Xan_Lo,Xanomeline Low Dose,,CENTRUM; HYDROCORTISONE,The subject experienced pruritus generalised. affecting the skin and subcutaneous tissue disorders. Severity: moderate. Relationship to study drug: possible. Outcome: recovered/resolved. Treatment arm: xanomeline low dose.,False,2,14,-1,0.0
CDISCPILOT01,AE,01-701-1097,6.0,E12,PRURITUS GENERALISED,GENERALIZED PRURITUS,,PRURITUS GENERALISED,,HLT_0123,,HLGT_0689,,SKIN AND SUBCUTANEOUS TISSUE DISORDERS,,SKIN AND SUBCUTANEOUS TISSUE DISORDERS,,MODERATE,N,,POSSIBLE,RECOVERED/RESOLVED,N,N,N,N,N,N,N,2014-04-23,2014-03-31,2014-03-31,90.0,90.0,68.0,M,WHITE,Xan_Lo,Xanomeline Low Dose,,CENTRUM; HYDROCORTISONE,The subject experienced pruritus generalised. affecting the skin and subcutaneous tissue disorders. Severity: moderate. Relationship to study drug: possible. Outcome: recovered/resolved. Treatment arm: xanomeline low dose.,False,2,14,-1,0.0
CDISCPILOT01,AE,01-701-1097,7.0,E09,PRURITUS GENERALISED,GENERALIZED PRURITUS,,PRURITUS GENERALISED,,HLT_0123,,HLGT_0689,,SKIN AND SUBCUTANEOUS TISSUE DISORDERS,,SKIN AND SUBCUTANEOUS TISSUE DISORDERS,,MODERATE,N,,POSSIBLE,RECOVERED/RESOLVED,N,N,N,N,N,N,N,2014-04-23,2014-04-19,2014-04-20,109.0,110.0,68.0,M,WHITE,Xan_Lo,Xanomeline Low Dose,,CENTRUM; HYDROCORTISONE,The subject experienced pruritus generalised. affecting the skin and subcutaneous tissue disorders. Severity: moderate. Relationship to study drug: possible. Outcome: recovered/resolved. Treatment arm: xanomeline low dose.,False,2,14,-1,0.0
CDISCPILOT01,AE,01-701-1111,7.0,E16,ARTHRALGIA,GENERALIZED JOINT PAIN,,ARTHRALGIA,,HLT_0375,,HLGT_0610,,MUSCULOSKELETAL AND CONNECTIVE TISSUE DISORDERS,,MUSCULOSKELETAL AND CONNECTIVE TISSUE DISORDERS,,MODERATE,N,,NONE,NOT RECOVERED/NOT RESOLVED,N,N,N,N,N,N,N,2012-09-17,2012-09-13,,7.0,,81.0,F,WHITE,Xan_Lo,Xanomeline Low Dose,,"HYDROCORTISONE, TOPICAL; KEFLEX; LISINOPRIL; MOTRIN; PREMARIN; PROVERA; SYNTHROID",The subject experienced arthralgia. affecting the musculoskeletal and connective tissue disorders. Severity: moderate. Relationship to study drug: none. Outcome: not recovered/not resolved. Treatment arm: xanomeline low dose.,False,2,14,38,0.352658085560396
CDISCPILOT01,AE,01-701-1111,8.0,E17,CELLULITIS,CELLULITIS OF LEG,,CELLULITIS,,HLT_0613,,HLGT_0066,,INFECTIONS AND INFESTATIONS,,INFECTIONS AND INFESTATIONS,,MODERATE,N,,NONE,NOT RECOVERED/NOT RESOLVED,N,N,N,N,N,N,N,2012-09-17,2012-09-13,,7.0,,81.0,F,WHITE,Xan_Lo,Xanomeline Low Dose,,"HYDROCORTISONE, TOPICAL; KEFLEX; LISINOPRIL; MOTRIN; PREMARIN; PROVERA; SYNTHROID",The subject experienced cellulitis. affecting the infections and infestations. Severity: moderate. Relationship to study drug: none. Outcome: not recovered/not resolved. Treatment arm: xanomeline low dose.,False,2,14,3,0.4420839732593653
CDISCPILOT01,AE,01-701-1111,1.0,E14,ERYTHEMA,ERYTHEMA,,ERYTHEMA,,HLT_0284,,HLGT_0192,,SKIN AND SUBCUTANEOUS TISSUE DISORDERS,,SKIN AND SUBCUTANEOUS TISSUE DISORDERS,,MILD,N,,NONE,NOT RECOVERED/NOT RESOLVED,N,N,N,N,N,N,N,2012-09-05,2012-09-02,2012-09-07,-5.0,1.0,81.0,F,WHITE,Xan_Lo,Xanomeline Low Dose,,"HYDROCORTISONE, TOPICAL; KEFLEX; LISINOPRIL; MOTRIN; PREMARIN; PROVERA; SYNTHROID",The subject experienced erythema. affecting the skin and subcutaneous tissue disorders. Severity: mild. Relationship to study drug: none. Outcome: not recovered/not resolved. Treatment arm: xanomeline low dose.,False,1,14,7,1.0
CDISCPILOT01,AE,01-701-1111,4.0,E14,ERYTHEMA,ERYTHEMA,,ERYTHEMA,,HLT_0284,,HLGT_0192,,SKIN AND SUBCUTANEOUS TISSUE DISORDERS,,SKIN AND SUBCUTANEOUS TISSUE DISORDERS,,MILD,N,,NONE,RECOVERED/RESOLVED,N,N,N,N,N,N,N,2012-09-17,2012-09-02,2012-09-07,-5.0,1.0,81.0,F,WHITE,Xan_Lo,Xanomeline Low Dose,,"HYDROCORTISONE, TOPICAL; KEFLEX; LISINOPRIL; MOTRIN; PREMARIN; PROVERA; SYNTHROID",The subject experienced erythema. affecting the skin and subcutaneous tissue disorders. Severity: mild. Relationship to study drug: none. Outcome: recovered/resolved. Treatment arm: xanomeline low dose.,False,1,14,7,1.0
CDISCPILOT01,AE,01-701-1111,3.0,E06,LOCALISED INFECTION,LOCALIZED INFECTION,,LOCALISED INFECTION,,HLT_0435,,HLGT_0557,,INFECTIONS AND INFESTATIONS,,INFECTIONS AND INFESTATIONS,,MODERATE,N,,NONE,NOT RECOVERED/NOT RESOLVED,N,N,N,N,N,N,N,2012-09-17,2012-07-08,,-61.0,,81.0,F,WHITE,Xan_Lo,Xanomeline Low Dose,,"HYDROCORTISONE, TOPICAL; KEFLEX; LISINOPRIL; MOTRIN; PREMARIN; PROVERA; SYNTHROID",The subject experienced localised infection. affecting the infections and infestations. Severity: moderate. Relationship to study drug: none. Outcome: not recovered/not resolved. Treatment arm: xanomeline low dose.,False,2,14,6,0.10776945753500904
CDISCPILOT01,AE,01-701-1111,6.0,E18,MICTURITION URGENCY,URINARY URGENCY,,MICTURITION URGENCY,,HLT_0294,,HLGT_0483,,RENAL AND URINARY DISORDERS,,RENAL AND URINARY DISORDERS,,MILD,N,,NONE,NOT RECOVERED/NOT RESOLVED,N,N,N,N,N,N,N,2012-09-17,2012-09-07,,1.0,,81.0,F,WHITE,Xan_Lo,Xanomeline Low Dose,,"HYDROCORTISONE, TOPICAL; KEFLEX; LISINOPRIL; MOTRIN; PREMARIN; PROVERA; SYNTHROID",The subject experienced micturition urgency. affecting the renal and urinary disorders. Severity: mild. Relationship to study drug: none. Outcome: not recovered/not resolved. Treatment arm: xanomeline low dose.,False,1,14,14,1.0
CDISCPILOT01,AE,01-701-1111,2.0,E15,PRURITUS,ITCHING,,PRURITUS,,HLT_0778,,HLGT_0695,,SKIN AND SUBCUTANEOUS TISSUE DISORDERS,,SKIN AND SUBCUTANEOUS TISSUE DISORDERS,,MILD,N,,NONE,NOT RECOVERED/NOT RESOLVED,N,N,N,N,N,N,N,2012-09-05,2012-09-02,2012-09-07,-5.0,1.0,81.0,F,WHITE,Xan_Lo,Xanomeline Low Dose,,"HYDROCORTISONE, TOPICAL; KEFLEX; LISINOPRIL; MOTRIN; PREMARIN; PROVERA; SYNTHROID",The subject experienced pruritus. affecting the skin and subcutaneous tissue disorders. Severity: mild. Relationship to study drug: none. Outcome: not recovered/not resolved. Treatment arm: xanomeline low dose.,False,1,14,0,0.11877996474505945
CDISCPILOT01,AE,01-701-1111,5.0,E15,PRURITUS,ITCHING,,PRURITUS,,HLT_0778,,HLGT_0695,,SKIN AND SUBCUTANEOUS TISSUE DISORDERS,,SKIN AND SUBCUTANEOUS TISSUE DISORDERS,,MILD,N,,NONE,RECOVERED/RESOLVED,N,N,N,N,N,N,N,2012-09-17,2012-09-02,2012-09-07,-5.0,1.0,81.0,F,WHITE,Xan_Lo,Xanomeline Low Dose,,"HYDROCORTISONE, TOPICAL; KEFLEX; LISINOPRIL; MOTRIN; PREMARIN; PROVERA; SYNTHROID",The subject experienced pruritus. affecting the skin and subcutaneous tissue disorders. Severity: mild. Relationship to study drug: none. Outcome: recovered/resolved. Treatment arm: xanomeline low dose.,False,1,14,0,0.3174000692764879
CDISCPILOT01,AE,01-701-1115,9.0,E14,APPLICATION SITE DERMATITIS,APPLICATION SITE RASH,,APPLICATION SITE DERMATITIS,,HLT_0343,,HLGT_0241,,GENERAL DISORDERS AND ADMINISTRATION SITE CONDITIONS,,GENERAL DISORDERS AND ADMINISTRATION SITE CONDITIONS,,MODERATE,N,,PROBABLE,NOT RECOVERED/NOT RESOLVED,N,N,N,N,N,N,N,2013-01-23,2013-01-19,,51.0,,84.0,M,WHITE,Xan_Lo,Xanomeline Low Dose,,"ASPIRIN; FEOSOL; HYDROCORTISONE, TOPICAL; HYTRIN; METAMUCIL; PRAVACHOL",The subject experienced application site dermatitis. affecting the general disorders and administration site conditions. Severity: moderate. Relationship to study drug: probable. Outcome: not recovered/not resolved. Treatment arm: xanomeline low dose.,False,2,14,10,0.6644395058150702
CDISCPILOT01,AE,01-701-1115,1.0,E09,APPLICATION SITE ERYTHEMA,APPLICATION SITE REDNESS,,APPLICATION SITE ERYTHEMA,,HLT_0617,,HLGT_0152,,GENERAL DISORDERS AND ADMINISTRATION SITE CONDITIONS,,GENERAL DISORDERS AND ADMINISTRATION SITE CONDITIONS,,MILD,N,,PROBABLE,NOT RECOVERED/NOT RESOLVED,N,N,N,N,N,N,N,2012-12-13,2012-12-02,,3.0,,84.0,M,WHITE,Xan_Lo,Xanomeline Low Dose,,"ASPIRIN; FEOSOL; HYDROCORTISONE, TOPICAL; HYTRIN; METAMUCIL; PRAVACHOL",The subject experienced application site erythema. affecting the general disorders and administration site conditions. Severity: mild. Relationship to study drug: probable. Outcome: not recovered/not resolved. Treatment arm: xanomeline low dose.,False,1,15,9,0.41120081163560485
CDISCPILOT01,AE,01-701-1115,5.0,E09,APPLICATION SITE ERYTHEMA,APPLICATION SITE REDNESS,,APPLICATION SITE ERYTHEMA,,HLT_0617,,HLGT_0152,,GENERAL DISORDERS AND ADMINISTRATION SITE CONDITIONS,,GENERAL DISORDERS AND ADMINISTRATION SITE CONDITIONS,,MODERATE,N,,PROBABLE,NOT RECOVERED/NOT RESOLVED,N,N,N,N,N,N,N,2013-01-23,2012-12-02,,3.0,,84.0,M,WHITE,Xan_Lo,Xanomeline Low Dose,,"ASPIRIN; FEOSOL; HYDROCORTISONE, TOPICAL; HYTRIN; METAMUCIL; PRAVACHOL",The subject experienced application site erythema. affecting the general disorders and administration site conditions. Severity: moderate. Relationship to study drug: probable. Outcome: not recovered/not resolved. Treatment arm: xanomeline low dose.,False,2,15,9,1.0
CDISCPILOT01,AE,01-701-1115,3.0,E10,APPLICATION SITE IRRITATION,APPLICATION SITE BURNING,,APPLICATION SITE IRRITATION,,HLT_0061,,HLGT_0346,,GENERAL DISORDERS AND ADMINISTRATION SITE CONDITIONS,,GENERAL DISORDERS AND ADMINISTRATION SITE CONDITIONS,,MILD,N,,POSSIBLE,NOT RECOVERED/NOT RESOLVED,N,N,N,N,N,N,N,2012-12-26,2012-12-26,2012-12-26,27.0,27.0,84.0,M,WHITE,Xan_Lo,Xanomeline Low Dose,,"ASPIRIN; FEOSOL; HYDROCORTISONE, TOPICAL; HYTRIN; METAMUCIL; PRAVACHOL",The subject experienced application site irritation. affecting the general disorders and administration site conditions. Severity: mild. Relationship to study drug: possible. Outcome: not recovered/not resolved. Treatment arm: xanomeline low dose.,False,1,15,8,1.0
CDISCPILOT01,AE,01-701-1115,4.0,E10,APPLICATION SITE IRRITATION,APPLICATION SITE BURNING,,APPLICATION SITE IRRITATION,,HLT_0061,,HLGT_0346,,GENERAL DISORDERS AND ADMINISTRATION SITE CONDITIONS,,GENERAL DISORDERS AND ADMINISTRATION SITE CONDITIONS,,MILD,N,,POSSIBLE,RECOVERED/RESOLVED,N,N,N,N,N,N,N,2012-12-28,2012-12-26,2012-12-26,27.0,27.0,84.0,M,WHITE,Xan_Lo,Xanomeline Low Dose,,"ASPIRIN; FEOSOL; HYDROCORTISONE, TOPICAL; HYTRIN; METAMUCIL; PRAVACHOL",The subject experienced application site irritation. affecting the general disorders and administration site conditions. Severity: mild. Relationship to study drug: possible. Outcome: recovered/resolved. Treatment arm: xanomeline low dose.,False,1,15,8,1.0
CDISCPILOT01,AE,01-701-1115,8.0,E12,APPLICATION SITE IRRITATION,APPLICATION SITE BURNING,,APPLICATION SITE IRRITATION,,HLT_0061,,HLGT_0346,,GENERAL DISORDERS AND ADMINISTRATION SITE CONDITIONS,,GENERAL DISORDERS AND ADMINISTRATION SITE CONDITIONS,,MODERATE,N,,PROBABLE,NOT RECOVERED/NOT RESOLVED,N,N,N,N,N,N,N,2013-01-23,2013-01-19,,51.0,,84.0,M,WHITE,Xan_Lo,Xanomeline Low Dose,,"ASPIRIN; FEOSOL; HYDROCORTISONE, TOPICAL; HYTRIN; METAMUCIL; PRAVACHOL",The subject experienced application site irritation. affecting the general disorders and administration site conditions. Severity: moderate. Relationship to study drug: probable. Outcome: not recovered/not resolved. Treatment arm: xanomeline low dose.,False,2,15,8,1.0
CDISCPILOT01,AE,01-701-1115,2.0,E11,APPLICATION SITE PRURITUS,APPLICATION SITE ITCHING,,APPLICATION SITE PRURITUS,,HLT_0317,,HLGT_0338,,GENERAL DISORDERS AND ADMINISTRATION SITE CONDITIONS,,GENERAL DISORDERS AND ADMINISTRATION SITE CONDITIONS,,MILD,N,,PROBABLE,NOT RECOVERED/NOT RESOLVED,N,N,N,N,N,N,N,2012-12-13,2012-12-02,,3.0,,84.0,M,WHITE,Xan_Lo,Xanomeline Low Dose,,"ASPIRIN; FEOSOL; HYDROCORTISONE, TOPICAL; HYTRIN; METAMUCIL; PRAVACHOL",The subject experienced application site pruritus. affecting the general disorders and administration site conditions. Severity: mild. Relationship to study drug: probable. Outcome: not recovered/not resolved. Treatment arm: xanomeline low dose.,False,1,15,5,0.5407943715268324
CDISCPILOT01,AE,01-701-1115,6.0,E11,APPLICATION SITE PRURITUS,APPLICATION SITE ITCHING,,APPLICATION SITE PRURITUS,,HLT_0317,,HLGT_0338,,GENERAL DISORDERS AND ADMINISTRATION SITE CONDITIONS,,GENERAL DISORDERS AND ADMINISTRATION SITE CONDITIONS,,MODERATE,N,,PROBABLE,NOT RECOVERED/NOT RESOLVED,N,N,N,N,N,N,N,2013-01-23,2012-12-02,,3.0,,84.0,M,WHITE,Xan_Lo,Xanomeline Low Dose,,"ASPIRIN; FEOSOL; HYDROCORTISONE, TOPICAL; HYTRIN; METAMUCIL; PRAVACHOL",The subject experienced application site pruritus. affecting the general disorders and administration site conditions. Severity: moderate. Relationship to study drug: probable. Outcome: not recovered/not resolved. Treatment arm: xanomeline low dose.,False,2,15,5,0.5192348089099892
CDISCPILOT01,AE,01-701-1115,7.0,E13,FATIGUE,FATIGUE,,FATIGUE,,HLT_0043,,HLGT_0181,,GENERAL DISORDERS AND ADMINISTRATION SITE CONDITIONS,,GENERAL DISORDERS AND ADMINISTRATION SITE CONDITIONS,,MODERATE,N,,REMOTE,NOT RECOVERED/NOT RESOLVED,N,N,N,N,N,N,N,2013-01-23,2013-01-14,,46.0,,84.0,M,WHITE,Xan_Lo,Xanomeline Low Dose,,"ASPIRIN; FEOSOL; HYDROCORTISONE, TOPICAL; HYTRIN; METAMUCIL; PRAVACHOL",The subject experienced fatigue. affecting the general disorders and administration site conditions. Severity: moderate. Relationship to study drug: remote. Outcome: not recovered/not resolved. Treatment arm: xanomeline low dose.,False,2,15,23,1.0
CDISCPILOT01,AE,01-701-1118,1.0,E06,COUGH,COUGH,,COUGH,,HLT_0701,,HLGT_0280,,"RESPIRATORY, THORACIC AND MEDIASTINAL DISORDERS",,"RESPIRATORY, THORACIC AND MEDIASTINAL DISORDERS",,MILD,N,,NONE,NOT RECOVERED/NOT RESOLVED,N,N,N,N,N,N,N,2014-03-10,2003,,,,52.0,M,WHITE,Pbo,Placebo,,ASPIRIN; MULTIVITAMIN,"The subject experienced cough. affecting the respiratory, thoracic and mediastinal disorders. Severity: mild. Relationship to study drug: none. Outcome: not recovered/not resolved. Treatment arm: placebo.",False,1,14,36,1.0
CDISCPILOT01,AE,01-701-1130,5.0,E09,EYE ALLERGY,EYE ALLERGY,,EYE ALLERGY,,HLT_0256,,HLGT_0071,,EYE DISORDERS,,EYE DISORDERS,,MILD,N,,NONE,RECOVERED/RESOLVED,N,N,N,N,N,N,N,2014-05-16,2014-05-09,2014-05-09,84.0,84.0,84.0,M,WHITE,Pbo,Placebo,,ANTIHISTAMINES FOR SYSTEMIC USE; CALCIUM; EUCERIN CREME; MULTIVITAMINS; POTASSIUM; SULFAMETHOXAZOLE,The subject experienced eye allergy. affecting the eye disorders. Severity: mild. Relationship to study drug: none. Outcome: recovered/resolved. Treatment arm: placebo.,False,1,12,15,1.0
CDISCPILOT01,AE,01-701-1130,6.0,E10,EYE PRURITUS,EYE ITCHING,,EYE PRURITUS,,HLT_0523,,HLGT_0240,,EYE DISORDERS,,EYE DISORDERS,,MILD,N,,REMOTE,NOT RECOVERED/NOT RESOLVED,N,N,N,N,N,N,N,2014-06-07,2014-05-22,,97.0,,84.0,M,WHITE,Pbo,Placebo,,ANTIHISTAMINES FOR SYSTEMIC USE; CALCIUM; EUCERIN CREME; MULTIVITAMINS; POTASSIUM; SULFAMETHOXAZOLE,The subject experienced eye pruritus. affecting the eye disorders. Severity: mild. Relationship to study drug: remote. Outcome: not recovered/not resolved. Treatment arm: placebo.,False,1,13,15,0.1588073228994976
CDISCPILOT01,AE,01-701-1130,4.0,E08,EYE SWELLING,EYES SWOLLEN,,EYE SWELLING,,HLT_0008,,HLGT_0466,,EYE DISORDERS,,EYE DISORDERS,,MILD,N,,NONE,RECOVERED/RESOLVED,N,N,N,N,N,N,N,2014-05-16,2014-05-09,2014-05-09,84.0,84.0,84.0,M,WHITE,Pbo,Placebo,,ANTIHISTAMINES FOR SYSTEMIC USE; CALCIUM; EUCERIN CREME; MULTIVITAMINS; POTASSIUM; SULFAMETHOXAZOLE,The subject experienced eye swelling. affecting the eye disorders. Severity: mild. Relationship to study drug: none. Outcome: recovered/resolved. Treatment arm: placebo.,False,1,12,15,1.0
CDISCPILOT01,AE,01-701-1130,8.0,E12,NASAL CONGESTION,NASAL CONGESTION,,NASAL CONGESTION,,HLT_0118,,HLGT_0549,,"RESPIRATORY, THORACIC AND MEDIASTINAL DISORDERS",,"RESPIRATORY, THORACIC AND MEDIASTINAL DISORDERS",,MILD,N,,REMOTE,NOT RECOVERED/NOT RESOLVED,N,N,N,N,N,N,N,2014-06-07,2014-05-22,,97.0,,84.0,M,WHITE,Pbo,Placebo,,ANTIHISTAMINES FOR SYSTEMIC USE; CALCIUM; EUCERIN CREME; MULTIVITAMINS; POTASSIUM; SULFAMETHOXAZOLE,"The subject experienced nasal congestion. affecting the respiratory, thoracic and mediastinal disorders. Severity: mild. Relationship to study drug: remote. Outcome: not recovered/not resolved. Treatment arm: placebo.",False,1,15,6,0.8665557291574587
CDISCPILOT01,AE,01-701-1130,7.0,E11,PRURITUS,ITCHING BOTH HANDS,,PRURITUS,,HLT_0778,,HLGT_0695,,SKIN AND SUBCUTANEOUS TISSUE DISORDERS,,SKIN AND SUBCUTANEOUS TISSUE DISORDERS,,MILD,N,,REMOTE,NOT RECOVERED/NOT RESOLVED,N,N,N,N,N,N,N,2014-06-07,2014-05-22,,97.0,,84.0,M,WHITE,Pbo,Placebo,,ANTIHISTAMINES FOR SYSTEMIC USE; CALCIUM; EUCERIN CREME; MULTIVITAMINS; POTASSIUM; SULFAMETHOXAZOLE,The subject experienced pruritus. affecting the skin and subcutaneous tissue disorders. Severity: mild. Relationship to study drug: remote. Outcome: not recovered/not resolved. Treatment arm: placebo.,False,1,14,0,1.0
CDISCPILOT01,AE,01-701-1130,2.0,E07,PYREXIA,FEVER,,PYREXIA,,HLT_0310,,HLGT_0652,,GENERAL DISORDERS AND ADMINISTRATION SITE CONDITIONS,,GENERAL DISORDERS AND ADMINISTRATION SITE CONDITIONS,,MILD,N,,NONE,RECOVERED/RESOLVED,N,N,N,N,N,N,N,2014-03-15,2014-03-09,2014-03-09,23.0,23.0,84.0,M,WHITE,Pbo,Placebo,,ANTIHISTAMINES FOR SYSTEMIC USE; CALCIUM; EUCERIN CREME; MULTIVITAMINS; POTASSIUM; SULFAMETHOXAZOLE,The subject experienced pyrexia. affecting the general disorders and administration site conditions. Severity: mild. Relationship to study drug: none. Outcome: recovered/resolved. Treatment arm: placebo.,False,1,13,20,0.2782056200702754
CDISCPILOT01,AE,01-701-1130,1.0,E06,URINARY TRACT INFECTION,URINARY TRACT INFECTION,,URINARY TRACT INFECTION,,HLT_0161,,HLGT_0093,,INFECTIONS AND INFESTATIONS,,INFECTIONS AND INFESTATIONS,,MILD,N,,NONE,NOT RECOVERED/NOT RESOLVED,N,N,N,N,N,N,N,2014-03-15,2014-03-09,2014-03-16,23.0,30.0,84.0,M,WHITE,Pbo,Placebo,,ANTIHISTAMINES FOR SYSTEMIC USE; CALCIUM; EUCERIN CREME; MULTIVITAMINS; POTASSIUM; SULFAMETHOXAZOLE,The subject experienced urinary tract infection. affecting the infections and infestations. Severity: mild. Relationship to study drug: none. Outcome: not recovered/not resolved. Treatment arm: placebo.,False,1,13,13,0.5295849663454543
CDISCPILOT01,AE,01-701-1130,3.0,E06,URINARY TRACT INFECTION,URINARY TRACT INFECTION,,URINARY TRACT INFECTION,,HLT_0161,,HLGT_0093,,INFECTIONS AND INFESTATIONS,,INFECTIONS AND INFESTATIONS,,MILD,N,,NONE,RECOVERED/RESOLVED,N,N,N,N,N,N,N,2014-03-17,2014-03-09,2014-03-16,23.0,30.0,84.0,M,WHITE,Pbo,Placebo,,ANTIHISTAMINES FOR SYSTEMIC USE; CALCIUM; EUCERIN CREME; MULTIVITAMINS; POTASSIUM; SULFAMETHOXAZOLE,The subject experienced urinary tract infection. affecting the infections and infestations. Severity: mild. Relationship to study drug: none. Outcome: recovered/resolved. Treatment arm: placebo.,False,1,13,13,0.5358473840946357
CDISCPILOT01,AE,01-701-1133,1.0,E04,APPLICATION SITE ERYTHEMA,APPLICATION SITE REDNESS,,APPLICATION SITE ERYTHEMA,,HLT_0617,,HLGT_0152,,GENERAL DISORDERS AND ADMINISTRATION SITE CONDITIONS,,GENERAL DISORDERS AND ADMINISTRATION SITE CONDITIONS,,MILD,N,,PROBABLE,NOT RECOVERED/NOT RESOLVED,N,N,N,N,N,N,N,2013-01-22,2012-12-27,,61.0,,81.0,F,WHITE,Xan_Hi,Xanomeline High Dose,,HYDROCORTISONE; MULTIVITAMIN,The subject experienced application site erythema. affecting the general disorders and administration site conditions. Severity: mild. Relationship to study drug: probable. Outcome: not recovered/not resolved. Treatment arm: xanomeline high dose.,False,1,15,9,1.0
CDISCPILOT01,AE,01-701-1133,3.0,E04,APPLICATION SITE ERYTHEMA,APPLICATION SITE REDNESS,,APPLICATION SITE ERYTHEMA,,HLT_0617,,HLGT_0152,,GENERAL DISORDERS AND ADMINISTRATION SITE CONDITIONS,,GENERAL DISORDERS AND ADMINISTRATION SITE CONDITIONS,,MODERATE,N,,PROBABLE,NOT RECOVERED/NOT RESOLVED,N,N,N,N,N,N,N,2013-02-18,2012-12-27,,61.0,,81.0,F,WHITE,Xan_Hi,Xanomeline High Dose,,HYDROCORTISONE; MULTIVITAMIN,The subject experienced application site erythema. affecting the general disorders and administration site conditions. Severity: moderate. Relationship to study drug: probable. Outcome: not recovered/not resolved. Treatment arm: xanomeline high dose.,False,2,15,9,1.0
CDISCPILOT01,AE,01-701-1133,2.0,E05,APPLICATION SITE PRURITUS,APPLICATION SITE ITCHING,,APPLICATION SITE PRURITUS,,HLT_0317,,HLGT_0338,,GENERAL DISORDERS AND ADMINISTRATION SITE CONDITIONS,,GENERAL DISORDERS AND ADMINISTRATION SITE CONDITIONS,,MILD,N,,PROBABLE,NOT RECOVERED/NOT RESOLVED,N,N,N,N,N,N,N,2013-01-22,2012-12-27,,61.0,,81.0,F,WHITE,Xan_Hi,Xanomeline High Dose,,HYDROCORTISONE; MULTIVITAMIN,The subject experienced application site pruritus. affecting the general disorders and administration site conditions. Severity: mild. Relationship to study drug: probable. Outcome: not recovered/not resolved. Treatment arm: xanomeline high dose.,False,1,15,5,0.6765326379935149
CDISCPILOT01,AE,01-701-1133,4.0,E05,APPLICATION SITE PRURITUS,APPLICATION SITE ITCHING,,APPLICATION SITE PRURITUS,,HLT_0317,,HLGT_0338,,GENERAL DISORDERS AND ADMINISTRATION SITE CONDITIONS,,GENERAL DISORDERS AND ADMINISTRATION SITE CONDITIONS,,MODERATE,N,,PROBABLE,NOT RECOVERED/NOT RESOLVED,N,N,N,N,N,N,N,2013-02-18,2012-12-27,,61.0,,81.0,F,WHITE,Xan_Hi,Xanomeline High Dose,,HYDROCORTISONE; MULTIVITAMIN,The subject experienced application site pruritus. affecting the general disorders and administration site conditions. Severity: moderate. Relationship to study drug: probable. Outcome: not recovered/not resolved. Treatment arm: xanomeline high dose.,False,2,15,5,1.0
CDISCPILOT01,AE,01-701-1146,5.0,E12,APPLICATION SITE ERYTHEMA,APPLICATION SITE ERYTHEMA,,APPLICATION SITE ERYTHEMA,,HLT_0617,,HLGT_0152,,GENERAL DISORDERS AND ADMINISTRATION SITE CONDITIONS,,GENERAL DISORDERS AND ADMINISTRATION SITE CONDITIONS,,MILD,N,,PROBABLE,NOT RECOVERED/NOT RESOLVED,N,N,N,N,N,N,N,2013-06-16,2013-06-10,,22.0,,75.0,F,WHITE,Xan_Hi,Xanomeline High Dose,,"ADVIL; BECONASE; DOCUSATE; HYDROCORTISONE, TOPICAL; MINERALS NOS; MOTRIN; MULTIVITAMIN; PREMARIN; PROVERA",The subject experienced application site erythema. affecting the general disorders and administration site conditions. Severity: mild. Relationship to study drug: probable. Outcome: not recovered/not resolved. Treatment arm: xanomeline high dose.,False,1,15,9,0.717704202064145
CDISCPILOT01,AE,01-701-1146,7.0,E12,APPLICATION SITE ERYTHEMA,APPLICATION SITE ERYTHEMA,,APPLICATION SITE ERYTHEMA,,HLT_0617,,HLGT_0152,,GENERAL DISORDERS AND ADMINISTRATION SITE CONDITIONS,,GENERAL DISORDERS AND ADMINISTRATION SITE CONDITIONS,,MODERATE,N,,PROBABLE,NOT RECOVERED/NOT RESOLVED,N,N,N,N,N,N,N,2013-06-30,2013-06-10,,22.0,,75.0,F,WHITE,Xan_Hi,Xanomeline High Dose,,"ADVIL; BECONASE; DOCUSATE; HYDROCORTISONE, TOPICAL; MINERALS NOS; MOTRIN; MULTIVITAMIN; PREMARIN; PROVERA",The subject experienced application site erythema. affecting the general disorders and administration site conditions. Severity: moderate. Relationship to study drug: probable. Outcome: not recovered/not resolved. Treatment arm: xanomeline high dose.,False,2,15,9,0.257093209672702
CDISCPILOT01,AE,01-701-1146,3.0,E10,APPLICATION SITE IRRITATION,APPLICATION SITE IRRITATION,,APPLICATION SITE IRRITATION,,HLT_0061,,HLGT_0346,,GENERAL DISORDERS AND ADMINISTRATION SITE CONDITIONS,,GENERAL DISORDERS AND ADMINISTRATION SITE CONDITIONS,,MILD,N,,PROBABLE,RECOVERED/RESOLVED,N,N,N,N,N,N,N,2013-06-03,2013-06-01,2013-06-02,13.0,14.0,75.0,F,WHITE,Xan_Hi,Xanomeline High Dose,,"ADVIL; BECONASE; DOCUSATE; HYDROCORTISONE, TOPICAL; MINERALS NOS; MOTRIN; MULTIVITAMIN; PREMARIN; PROVERA",The subject experienced application site irritation. affecting the general disorders and administration site conditions. Severity: mild. Relationship to study drug: probable. Outcome: recovered/resolved. Treatment arm: xanomeline high dose.,False,1,15,8,0.07936639237872288
CDISCPILOT01,AE,01-701-1146,11.0,E16,APPLICATION SITE IRRITATION,APPLICATION SITE BURNING,,APPLICATION SITE IRRITATION,,HLT_0061,,HLGT_0346,,GENERAL DISORDERS AND ADMINISTRATION SITE CONDITIONS,,GENERAL DISORDERS AND ADMINISTRATION SITE CONDITIONS,,MODERATE,N,,PROBABLE,NOT RECOVERED/NOT RESOLVED,N,N,N,N,N,N,N,2013-06-30,2013-06-26,,38.0,,75.0,F,WHITE,Xan_Hi,Xanomeline High Dose,,"ADVIL; BECONASE; DOCUSATE; HYDROCORTISONE, TOPICAL; MINERALS NOS; MOTRIN; MULTIVITAMIN; PREMARIN; PROVERA",The subject experienced application site irritation. affecting the general disorders and administration site conditions. Severity: moderate. Relationship to study drug: probable. Outcome: not recovered/not resolved. Treatment arm: xanomeline high dose.,False,2,15,8,1.0
CDISCPILOT01,AE,01-701-1146,9.0,E14,APPLICATION SITE PAIN,APPLICATION SITE PAIN,,APPLICATION SITE PAIN,,HLT_0342,,HLGT_0085,,GENERAL DISORDERS AND ADMINISTRATION SITE CONDITIONS,,GENERAL DISORDERS AND ADMINISTRATION SITE CONDITIONS,,MODERATE,N,,PROBABLE,NOT RECOVERED/NOT RESOLVED,N,N,N,N,N,N,N,2013-06-30,2013-06-22,,34.0,,75.0,F,WHITE,Xan_Hi,Xanomeline High Dose,,"ADVIL; BECONASE; DOCUSATE; HYDROCORTISONE, TOPICAL; MINERALS NOS; MOTRIN; MULTIVITAMIN; PREMARIN; PROVERA",The subject experienced application site pain. affecting the general disorders and administration site conditions. Severity: moderate. Relationship to study drug: probable. Outcome: not recovered/not resolved. Treatment arm: xanomeline high dose.,False,2,14,28,1.0
CDISCPILOT01,AE,01-701-1146,6.0,E13,APPLICATION SITE PRURITUS,APPLICATION SITE ITCHING,,APPLICATION SITE PRURITUS,,HLT_0317,,HLGT_0338,,GENERAL DISORDERS AND ADMINISTRATION SITE CONDITIONS,,GENERAL DISORDERS AND ADMINISTRATION SITE CONDITIONS,,MILD,N,,PROBABLE,NOT RECOVERED/NOT RESOLVED,N,N,N,N,N,N,N,2013-06-16,2013-06-10,,22.0,,75.0,F,WHITE,Xan_Hi,Xanomeline High Dose,,"ADVIL; BECONASE; DOCUSATE; HYDROCORTISONE, TOPICAL; MINERALS NOS; MOTRIN; MULTIVITAMIN; PREMARIN; PROVERA",The subject experienced application site pruritus. affecting the general disorders and administration site conditions. Severity: mild. Relationship to study drug: probable. Outcome: not recovered/not resolved. Treatment arm: xanomeline high dose.,False,1,15,5,1.0
CDISCPILOT01,AE,01-701-1146,8.0,E13,APPLICATION SITE PRURITUS,APPLICATION SITE ITCHING,,APPLICATION SITE PRURITUS,,HLT_0317,,HLGT_0338,,GENERAL DISORDERS AND ADMINISTRATION SITE CONDITIONS,,GENERAL DISORDERS AND ADMINISTRATION SITE CONDITIONS,,MODERATE,N,,PROBABLE,NOT RECOVERED/NOT RESOLVED,N,N,N,N,N,N,N,2013-06-30,2013-06-10,,22.0,,75.0,F,WHITE,Xan_Hi,Xanomeline High Dose,,"ADVIL; BECONASE; DOCUSATE; HYDROCORTISONE, TOPICAL; MINERALS NOS; MOTRIN; MULTIVITAMIN; PREMARIN; PROVERA",The subject experienced application site pruritus. affecting the general disorders and administration site conditions. Severity: moderate. Relationship to study drug: probable. Outcome: not recovered/not resolved. Treatment arm: xanomeline high dose.,False,2,15,5,0.8038442731730799
CDISCPILOT01,AE,01-701-1146,10.0,E15,APPLICATION SITE VESICLES,APPLICATION SITE VESICLES,,APPLICATION SITE VESICLES,,HLT_0180,,HLGT_0576,,GENERAL DISORDERS AND ADMINISTRATION SITE CONDITIONS,,GENERAL DISORDERS AND ADMINISTRATION SITE CONDITIONS,,MODERATE,N,,PROBABLE,NOT RECOVERED/NOT RESOLVED,N,N,N,N,N,N,N,2013-06-30,2013-06-26,,38.0,,75.0,F,WHITE,Xan_Hi,Xanomeline High Dose,,"ADVIL; BECONASE; DOCUSATE; HYDROCORTISONE, TOPICAL; MINERALS NOS; MOTRIN; MULTIVITAMIN; PREMARIN; PROVERA",The subject experienced application site vesicles. affecting the general disorders and administration site conditions. Severity: moderate. Relationship to study drug: probable. Outcome: not recovered/not resolved. Treatment arm: xanomeline high dose.,False,2,15,18,0.19871922523821875
CDISCPILOT01,AE,01-701-1146,4.0,E11,FATIGUE,FATIGUE,,FATIGUE,,HLT_0043,,HLGT_0181,,GENERAL DISORDERS AND ADMINISTRATION SITE CONDITIONS,,GENERAL DISORDERS AND ADMINISTRATION SITE CONDITIONS,,MILD,N,,POSSIBLE,NOT RECOVERED/NOT RESOLVED,N,N,N,N,N,N,N,2013-06-03,2013-06-03,,15.0,,75.0,F,WHITE,Xan_Hi,Xanomeline High Dose,,"ADVIL; BECONASE; DOCUSATE; HYDROCORTISONE, TOPICAL; MINERALS NOS; MOTRIN; MULTIVITAMIN; PREMARIN; PROVERA",The subject experienced fatigue. affecting the general disorders and administration site conditions. Severity: mild. Relationship to study drug: possible. Outcome: not recovered/not resolved. Treatment arm: xanomeline high dose.,False,1,14,23,0.1083341615125397
CDISCPILOT01,AE,01-701-1146,1.0,E09,RASH,RASH,,RASH,,HLT_0762,,HLGT_0198,,SKIN AND SUBCUTANEOUS TISSUE DISORDERS,,SKIN AND SUBCUTANEOUS TISSUE DISORDERS,,MILD,N,,NONE,NOT RECOVERED/NOT RESOLVED,N,N,N,N,N,N,N,2013-05-18,2013-05-16,2013-06-02,-4.0,14.0,75.0,F,WHITE,Xan_Hi,Xanomeline High Dose,,"ADVIL; BECONASE; DOCUSATE; HYDROCORTISONE, TOPICAL; MINERALS NOS; MOTRIN; MULTIVITAMIN; PREMARIN; PROVERA",The subject experienced rash. affecting the skin and subcutaneous tissue disorders. Severity: mild. Relationship to study drug: none. Outcome: not recovered/not resolved. Treatment arm: xanomeline high dose.,False,1,14,3,1.0
CDISCPILOT01,AE,01-701-1146,2.0,E09,RASH,RASH,,RASH,,HLT_0762,,HLGT_0198,,SKIN AND SUBCUTANEOUS TISSUE DISORDERS,,SKIN AND SUBCUTANEOUS TISSUE DISORDERS,,MILD,N,,NONE,RECOVERED/RESOLVED,N,N,N,N,N,N,N,2013-06-03,2013-05-16,2013-06-02,-4.0,14.0,75.0,F,WHITE,Xan_Hi,Xanomeline High Dose,,"ADVIL; BECONASE; DOCUSATE; HYDROCORTISONE, TOPICAL; MINERALS NOS; MOTRIN; MULTIVITAMIN; PREMARIN; PROVERA",The subject experienced rash. affecting the skin and subcutaneous tissue disorders. Severity: mild. Relationship to study drug: none. Outcome: recovered/resolved. Treatment arm: xanomeline high dose.,False,1,14,3,1.0
CDISCPILOT01,AE,01-701-1148,10.0,E27,ACTINIC KERATOSIS,ACTINIC KERATOSIS,,ACTINIC KERATOSIS,,HLT_0609,,HLGT_0490,,SKIN AND SUBCUTANEOUS TISSUE DISORDERS,,SKIN AND SUBCUTANEOUS TISSUE DISORDERS,,MILD,N,,NONE,NOT RECOVERED/NOT RESOLVED,N,N,N,N,N,N,N,2014-02-20,2014-02-12,,174.0,,57.0,M,WHITE,Xan_Hi,Xanomeline High Dose,,CIMETIDINE; FLUOROPLEX; HYDROCODONE W/APAP; HYDROCORTISONE; NAPROXEN; SULFAMETHOXAZOLE; TUMS; TYLENOL,The subject experienced actinic keratosis. affecting the skin and subcutaneous tissue disorders. Severity: mild. Relationship to study drug: none. Outcome: not recovered/not resolved. Treatment arm: xanomeline high dose.,False,1,14,3,1.0
CDISCPILOT01,AE,01-701-1148,1.0,E20,APPLICATION SITE ERYTHEMA,APPLICATION SITE REDNESS,,APPLICATION SITE ERYTHEMA,,HLT_0617,,HLGT_0152,,GENERAL DISORDERS AND ADMINISTRATION SITE CONDITIONS,,GENERAL DISORDERS AND ADMINISTRATION SITE CONDITIONS,,MILD,N,,PROBABLE,NOT RECOVERED/NOT RESOLVED,N,N,N,N,N,N,N,2013-09-05,2013-08-25,,3.0,,57.0,M,WHITE,Xan_Hi,Xanomeline High Dose,,CIMETIDINE; FLUOROPLEX; HYDROCODONE W/APAP; HYDROCORTISONE; NAPROXEN; SULFAMETHOXAZOLE; TUMS; TYLENOL,The subject experienced application site erythema. affecting the general disorders and administration site conditions. Severity: mild. Relationship to study drug: probable. Outcome: not recovered/not resolved. Treatment arm: xanomeline high dose.,False,1,15,9,1.0
CDISCPILOT01,AE,01-701-1148,2.0,E21,APPLICATION SITE PRURITUS,APPLICATION SITE ITCHING,,APPLICATION SITE PRURITUS,,HLT_0317,,HLGT_0338,,GENERAL DISORDERS AND ADMINISTRATION SITE CONDITIONS,,GENERAL DISORDERS AND ADMINISTRATION SITE CONDITIONS,,MILD,N,,PROBABLE,NOT RECOVERED/NOT RESOLVED,N,N,N,N,N,N,N,2013-09-05,2013-08-25,,3.0,,57.0,M,WHITE,Xan_Hi,Xanomeline High Dose,,CIMETIDINE; FLUOROPLEX; HYDROCODONE W/APAP; HYDROCORTISONE; NAPROXEN; SULFAMETHOXAZOLE; TUMS; TYLENOL,The subject experienced application site pruritus. affecting the general disorders and administration site conditions. Severity: mild. Relationship to study drug: probable. Outcome: not recovered/not resolved. Treatment arm: xanomeline high dose.,False,1,15,5,0.5662288667569345
CDISCPILOT01,AE,01-701-1148,6.0,E25,CALCULUS URETHRAL,URETHRAL CALCULUS,,CALCULUS URETHRAL,,HLT_0550,,HLGT_0414,,RENAL AND URINARY DISORDERS,,RENAL AND URINARY DISORDERS,,MODERATE,N,,NONE,RECOVERED/RESOLVED,N,N,N,N,N,N,N,2014-01-10,2013-12-17,2013-12-17,117.0,117.0,57.0,M,WHITE,Xan_Hi,Xanomeline High Dose,,CIMETIDINE; FLUOROPLEX; HYDROCODONE W/APAP; HYDROCORTISONE; NAPROXEN; SULFAMETHOXAZOLE; TUMS; TYLENOL,The subject experienced calculus urethral. affecting the renal and urinary disorders. Severity: moderate. Relationship to study drug: none. Outcome: recovered/resolved. Treatment arm: xanomeline high dose.,False,2,14,14,0.9261643779183683
CDISCPILOT01,AE,01-701-1148,9.0,E26,DEPRESSED MOOD,DEPRESSED MOOD,,DEPRESSED MOOD,,HLT_0784,,HLGT_0122,,PSYCHIATRIC DISORDERS,,PSYCHIATRIC DISORDERS,,MODERATE,N,,NONE,NOT RECOVERED/NOT RESOLVED,N,N,N,N,N,N,N,2014-02-08,2013-07-29,,-25.0,,57.0,M,WHITE,Xan_Hi,Xanomeline High Dose,,CIMETIDINE; FLUOROPLEX; HYDROCODONE W/APAP; HYDROCORTISONE; NAPROXEN; SULFAMETHOXAZOLE; TUMS; TYLENOL,The subject experienced depressed mood. affecting the psychiatric disorders. Severity: moderate. Relationship to study drug: none. Outcome: not recovered/not resolved. Treatment arm: xanomeline high dose.,False,2,13,11,1.0
CDISCPILOT01,AE,01-701-1148,8.0,E03,DYSPEPSIA,INDIGESTION,,DYSPEPSIA,,HLT_0244,,HLGT_0716,,GASTROINTESTINAL DISORDERS,,GASTROINTESTINAL DISORDERS,,MODERATE,N,,NONE,NOT RECOVERED/NOT RESOLVED,N,N,N,N,N,N,N,2014-02-08,2012-02,,,,57.0,M,WHITE,Xan_Hi,Xanomeline High Dose,,CIMETIDINE; FLUOROPLEX; HYDROCODONE W/APAP; HYDROCORTISONE; NAPROXEN; SULFAMETHOXAZOLE; TUMS; TYLENOL,The subject experienced dyspepsia. affecting the gastrointestinal disorders. Severity: moderate. Relationship to study drug: none. Outcome: not recovered/not resolved. Treatment arm: xanomeline high dose.,False,2,13,49,1.0
CDISCPILOT01,AE,01-701-1148,7.0,E28,EPISTAXIS,NOSE BLEED,,EPISTAXIS,,HLT_0386,,HLGT_0577,,"RESPIRATORY, THORACIC AND MEDIASTINAL DISORDERS",,"RESPIRATORY, THORACIC AND MEDIASTINAL DISORDERS",,MILD,N,,NONE,RECOVERED/RESOLVED,N,N,N,N,N,N,N,2014-01-10,2014-01-03,2014-01-03,134.0,134.0,57.0,M,WHITE,Xan_Hi,Xanomeline High Dose,,CIMETIDINE; FLUOROPLEX; HYDROCODONE W/APAP; HYDROCORTISONE; NAPROXEN; SULFAMETHOXAZOLE; TUMS; TYLENOL,"The subject experienced epistaxis. affecting the respiratory, thoracic and mediastinal disorders. Severity: mild. Relationship to study drug: none. Outcome: recovered/resolved. Treatment arm: xanomeline high dose.",False,1,15,41,1.0
CDISCPILOT01,AE,01-701-1148,5.0,E24,FLANK PAIN,FLANK PAIN,,FLANK PAIN,,HLT_0484,,HLGT_0543,,MUSCULOSKELETAL AND CONNECTIVE TISSUE DISORDERS,,MUSCULOSKELETAL AND CONNECTIVE TISSUE DISORDERS,,MODERATE,N,,NONE,RECOVERED/RESOLVED,N,N,N,N,N,N,N,2014-01-10,2013-12-15,2013-12-17,115.0,117.0,57.0,M,WHITE,Xan_Hi,Xanomeline High Dose,,CIMETIDINE; FLUOROPLEX; HYDROCODONE W/APAP; HYDROCORTISONE; NAPROXEN; SULFAMETHOXAZOLE; TUMS; TYLENOL,The subject experienced flank pain. affecting the musculoskeletal and connective tissue disorders. Severity: moderate. Relationship to study drug: none. Outcome: recovered/resolved. Treatment arm: xanomeline high dose.,False,2,14,12,0.5825795192494697
CDISCPILOT01,AE,01-701-1148,3.0,E23,LOWER RESPIRATORY TRACT INFECTION,CHEST COLD,,LOWER RESPIRATORY TRACT INFECTION,,HLT_0052,,HLGT_0217,,INFECTIONS AND INFESTATIONS,,INFECTIONS AND INFESTATIONS,,MODERATE,N,,NONE,NOT RECOVERED/NOT RESOLVED,N,N,N,N,N,N,N,2013-10-18,2013-10-12,2013-11-10,51.0,80.0,57.0,M,WHITE,Xan_Hi,Xanomeline High Dose,,CIMETIDINE; FLUOROPLEX; HYDROCODONE W/APAP; HYDROCORTISONE; NAPROXEN; SULFAMETHOXAZOLE; TUMS; TYLENOL,The subject experienced lower respiratory tract infection. affecting the infections and infestations. Severity: moderate. Relationship to study drug: none. Outcome: not recovered/not resolved. Treatment arm: xanomeline high dose.,False,2,15,6,1.0
CDISCPILOT01,AE,01-701-1148,4.0,E23,LOWER RESPIRATORY TRACT INFECTION,CHEST COLD,,LOWER RESPIRATORY TRACT INFECTION,,HLT_0052,,HLGT_0217,,INFECTIONS AND INFESTATIONS,,INFECTIONS AND INFESTATIONS,,MODERATE,N,,NONE,RECOVERED/RESOLVED,N,N,N,N,N,N,N,2013-11-17,2013-10-12,2013-11-10,51.0,80.0,57.0,M,WHITE,Xan_Hi,Xanomeline High Dose,,CIMETIDINE; FLUOROPLEX; HYDROCODONE W/APAP; HYDROCORTISONE; NAPROXEN; SULFAMETHOXAZOLE; TUMS; TYLENOL,The subject experienced lower respiratory tract infection. affecting the infections and infestations. Severity: moderate. Relationship to study drug: none. Outcome: recovered/resolved. Treatment arm: xanomeline high dose.,False,2,15,6,0.8954557999762304
CDISCPILOT01,AE,01-701-1153,1.0,E06,INCREASED APPETITE,INCREASED APPETITE,,INCREASED APPETITE,,HLT_0566,,HLGT_0769,,METABOLISM AND NUTRITION DISORDERS,,METABOLISM AND NUTRITION DISORDERS,,MILD,N,,POSSIBLE,NOT RECOVERED/NOT RESOLVED,N,N,N,N,N,N,N,2013-10-19,2013-10-13,2013-11-06,21.0,45.0,79.0,F,WHITE,Pbo,Placebo,,TYLENOL,The subject experienced increased appetite. affecting the metabolism and nutrition disorders. Severity: mild. Relationship to study drug: possible. Outcome: not recovered/not resolved. Treatment arm: placebo.,False,1,13,17,0.9691246211945256
CDISCPILOT01,AE,01-701-1153,2.0,E06,INCREASED APPETITE,INCREASED APPETITE,,INCREASED APPETITE,,HLT_0566,,HLGT_0769,,METABOLISM AND NUTRITION DISORDERS,,METABOLISM AND NUTRITION DISORDERS,,MILD,N,,POSSIBLE,RECOVERED/RESOLVED,N,N,N,N,N,N,N,2013-11-18,2013-10-13,2013-11-06,21.0,45.0,79.0,F,WHITE,Pbo,Placebo,,TYLENOL,The subject experienced increased appetite. affecting the metabolism and nutrition disorders. Severity: mild. Relationship to study drug: possible. Outcome: recovered/resolved. Treatment arm: placebo.,False,1,13,17,1.0
CDISCPILOT01,AE,01-701-1180,9.0,E07,APPLICATION SITE ERYTHEMA,APPLICATION SITE ERYTHEMA,,APPLICATION SITE ERYTHEMA,,HLT_0617,,HLGT_0152,,GENERAL DISORDERS AND ADMINISTRATION SITE CONDITIONS,,GENERAL DISORDERS AND ADMINISTRATION SITE CONDITIONS,,MODERATE,N,,POSSIBLE,NOT RECOVERED/NOT RESOLVED,N,N,N,N,N,N,N,2013-03-23,2013-03-19,,36.0,,56.0,M,WHITE,Xan_Hi,Xanomeline High Dose,,ALOES; ASPIRIN; CENTRUM; DHEA; HISMANAL; MEDROL DOSEPAK; MELATONIN; NEOSPORIN /USA/; SUDAFED; WESTCORT,The subject experienced application site erythema. affecting the general disorders and administration site conditions. Severity: moderate. Relationship to study drug: possible. Outcome: not recovered/not resolved. Treatment arm: xanomeline high dose.,False,2,15,9,1.0
CDISCPILOT01,AE,01-701-1180,8.0,E06,APPLICATION SITE PRURITUS,APPLICATION SITE ITCHING,,APPLICATION SITE PRURITUS,,HLT_0317,,HLGT_0338,,GENERAL DISORDERS AND ADMINISTRATION SITE CONDITIONS,,GENERAL DISORDERS AND ADMINISTRATION SITE CONDITIONS,,MODERATE,N,,POSSIBLE,NOT RECOVERED/NOT RESOLVED,N,N,N,N,N,N,N,2013-03-23,2013-03-19,,36.0,,56.0,M,WHITE,Xan_Hi,Xanomeline High Dose,,ALOES; ASPIRIN; CENTRUM; DHEA; HISMANAL; MEDROL DOSEPAK; MELATONIN; NEOSPORIN /USA/; SUDAFED; WESTCORT,The subject experienced application site pruritus. affecting the general disorders and administration site conditions. Severity: moderate. Relationship to study drug: possible. Outcome: not recovered/not resolved. Treatment arm: xanomeline high dose.,False,2,15,-1,0.0
CDISCPILOT01,AE,01-701-1180,7.0,E05,APPLICATION SITE VESICLES,APPLICATION SITE BLISTER,,APPLICATION SITE VESICLES,,HLT_0180,,HLGT_0576,,GENERAL DISORDERS AND ADMINISTRATION SITE CONDITIONS,,GENERAL DISORDERS AND ADMINISTRATION SITE CONDITIONS,,MODERATE,N,,POSSIBLE,NOT RECOVERED/NOT RESOLVED,N,N,N,N,N,N,N,2013-03-23,2013-03-19,,36.0,,56.0,M,WHITE,Xan_Hi,Xanomeline High Dose,,ALOES; ASPIRIN; CENTRUM; DHEA; HISMANAL; MEDROL DOSEPAK; MELATONIN; NEOSPORIN /USA/; SUDAFED; WESTCORT,The subject experienced application site vesicles. affecting the general disorders and administration site conditions. Severity: moderate. Relationship to study drug: possible. Outcome: not recovered/not resolved. Treatment arm: xanomeline high dose.,False,2,15,18,0.9193602649653514
CDISCPILOT01,AE,01-701-1180,4.0,E04,HEADACHE,HEADACHE,,HEADACHE,,HLT_0064,,HLGT_0344,,NERVOUS SYSTEM DISORDERS,,NERVOUS SYSTEM DISORDERS,,MODERATE,N,,NONE,NOT RECOVERED/NOT RESOLVED,N,N,N,N,N,N,N,2013-03-11,2002,,,,56.0,M,WHITE,Xan_Hi,Xanomeline High Dose,,ALOES; ASPIRIN; CENTRUM; DHEA; HISMANAL; MEDROL DOSEPAK; MELATONIN; NEOSPORIN /USA/; SUDAFED; WESTCORT,The subject experienced headache. affecting the nervous system disorders. Severity: moderate. Relationship to study drug: none. Outcome: not recovered/not resolved. Treatment arm: xanomeline high dose.,False,2,13,2,0.6152290202940516
CDISCPILOT01,AE,01-701-1180,3.0,E02,MICTURITION URGENCY,URINARY URGENCY,,MICTURITION URGENCY,,HLT_0294,,HLGT_0483,,RENAL AND URINARY DISORDERS,,RENAL AND URINARY DISORDERS,,MILD,N,,POSSIBLE,NOT RECOVERED/NOT RESOLVED,N,N,N,N,N,N,N,2013-02-25,2013-02-15,2013-03-19,4.0,36.0,56.0,M,WHITE,Xan_Hi,Xanomeline High Dose,,ALOES; ASPIRIN; CENTRUM; DHEA; HISMANAL; MEDROL DOSEPAK; MELATONIN; NEOSPORIN /USA/; SUDAFED; WESTCORT,The subject experienced micturition urgency. affecting the renal and urinary disorders. Severity: mild. Relationship to study drug: possible. Outcome: not recovered/not resolved. Treatment arm: xanomeline high dose.,False,1,14,14,1.0
CDISCPILOT01,AE,01-701-1180,6.0,E02,MICTURITION URGENCY,URINARY URGENCY,,MICTURITION URGENCY,,HLT_0294,,HLGT_0483,,RENAL AND URINARY DISORDERS,,RENAL AND URINARY DISORDERS,,MILD,N,,POSSIBLE,RECOVERED/RESOLVED,N,N,N,N,N,N,N,2013-03-23,2013-02-15,2013-03-19,4.0,36.0,56.0,M,WHITE,Xan_Hi,Xanomeline High Dose,,ALOES; ASPIRIN; CENTRUM; DHEA; HISMANAL; MEDROL DOSEPAK; MELATONIN; NEOSPORIN /USA/; SUDAFED; WESTCORT,The subject experienced micturition urgency. affecting the renal and urinary disorders. Severity: mild. Relationship to study drug: possible. Outcome: recovered/resolved. Treatment arm: xanomeline high dose.,False,1,14,14,0.5939976991737995
CDISCPILOT01,AE,01-701-1180,5.0,E03,NASOPHARYNGITIS,COLD,,NASOPHARYNGITIS,,HLT_0036,,HLGT_0709,,INFECTIONS AND INFESTATIONS,,INFECTIONS AND INFESTATIONS,,MILD,N,,NONE,RECOVERED/RESOLVED,N,N,N,N,N,N,N,2013-03-11,2013-03-06,2013-03-07,23.0,24.0,56.0,M,WHITE,Xan_Hi,Xanomeline High Dose,,ALOES; ASPIRIN; CENTRUM; DHEA; HISMANAL; MEDROL DOSEPAK; MELATONIN; NEOSPORIN /USA/; SUDAFED; WESTCORT,The subject experienced nasopharyngitis. affecting the infections and infestations. Severity: mild. Relationship to study drug: none. Outcome: recovered/resolved. Treatment arm: xanomeline high dose.,False,1,14,32,1.0
CDISCPILOT01,AE,01-701-1180,1.0,E01,VOMITING,VOMITING,,VOMITING,,HLT_0016,,HLGT_0350,,GASTROINTESTINAL DISORDERS,,GASTROINTESTINAL DISORDERS,,MILD,N,,NONE,NOT RECOVERED/NOT RESOLVED,N,N,N,N,N,N,N,2013-02-12,2013-02-12,2013-02-12,1.0,1.0,56.0,M,WHITE,Xan_Hi,Xanomeline High Dose,,ALOES; ASPIRIN; CENTRUM; DHEA; HISMANAL; MEDROL DOSEPAK; MELATONIN; NEOSPORIN /USA/; SUDAFED; WESTCORT,The subject experienced vomiting. affecting the gastrointestinal disorders. Severity: mild. Relationship to study drug: none. Outcome: not recovered/not resolved. Treatment arm: xanomeline high dose.,False,1,13,1,1.0
CDISCPILOT01,AE,01-701-1180,2.0,E01,VOMITING,VOMITING,,VOMITING,,HLT_0016,,HLGT_0350,,GASTROINTESTINAL DISORDERS,,GASTROINTESTINAL DISORDERS,,MILD,N,,NONE,RECOVERED/RESOLVED,N,N,N,N,N,N,N,2013-02-25,2013-02-12,2013-02-12,1.0,1.0,56.0,M,WHITE,Xan_Hi,Xanomeline High Dose,,ALOES; ASPIRIN; CENTRUM; DHEA; HISMANAL; MEDROL DOSEPAK; MELATONIN; NEOSPORIN /USA/; SUDAFED; WESTCORT,The subject experienced vomiting. affecting the gastrointestinal disorders. Severity: mild. Relationship to study drug: none. Outcome: recovered/resolved. Treatment arm: xanomeline high dose.,False,1,13,1,0.5690104200045775
CDISCPILOT01,AE,01-701-1181,1.0,E16,AGITATION,AGITATION,,AGITATION,,HLT_0140,,HLGT_0170,,PSYCHIATRIC DISORDERS,,PSYCHIATRIC DISORDERS,,MODERATE,N,,NONE,RECOVERED/RESOLVED,N,N,N,N,N,N,N,2013-12-12,2013-12-09,2013-12-09,5.0,5.0,79.0,F,WHITE,Xan_Hi,Xanomeline High Dose,,CALCIUM MAGNESIUM; MOTRIN; POTASSIUM; TYLENOL; VITAMIN C; VITAMIN E,The subject experienced agitation. affecting the psychiatric disorders. Severity: moderate. Relationship to study drug: none. Outcome: recovered/resolved. Treatment arm: xanomeline high dose.,False,2,13,11,1.0
CDISCPILOT01,AE,01-701-1188,7.0,E09,APPLICATION SITE URTICARIA,APPLICATION SITE URTICARIA,,APPLICATION SITE URTICARIA,,HLT_0196,,HLGT_0233,,GENERAL DISORDERS AND ADMINISTRATION SITE CONDITIONS,,GENERAL DISORDERS AND ADMINISTRATION SITE CONDITIONS,,MILD,N,,PROBABLE,NOT RECOVERED/NOT RESOLVED,N,N,N,N,N,N,N,2013-03-25,2013-03-21,,35.0,,71.0,M,WHITE,Xan_Lo,Xanomeline Low Dose,,ASPIRIN; MULTIVITAMINS,The subject experienced application site urticaria. affecting the general disorders and administration site conditions. Severity: mild. Relationship to study drug: probable. Outcome: not recovered/not resolved. Treatment arm: xanomeline low dose.,False,1,15,34,1.0
CDISCPILOT01,AE,01-701-1188,1.0,E04,ERYTHEMA,ERYTHEMA,,ERYTHEMA,,HLT_0284,,HLGT_0192,,SKIN AND SUBCUTANEOUS TISSUE DISORDERS,,SKIN AND SUBCUTANEOUS TISSUE DISORDERS,,MILD,N,,PROBABLE,NOT RECOVERED/NOT RESOLVED,N,N,N,N,N,N,N,2013-03-02,2013-02-16,,2.0,,71.0,M,WHITE,Xan_Lo,Xanomeline Low Dose,,ASPIRIN; MULTIVITAMINS,The subject experienced erythema. affecting the skin and subcutaneous tissue disorders. Severity: mild. Relationship to study drug: probable. Outcome: not recovered/not resolved. Treatment arm: xanomeline low dose.,False,1,14,7,1.0
CDISCPILOT01,AE,01-701-1188,3.0,E04,ERYTHEMA,ERYTHEMA,,ERYTHEMA,,HLT_0284,,HLGT_0192,,SKIN AND SUBCUTANEOUS TISSUE DISORDERS,,SKIN AND SUBCUTANEOUS TISSUE DISORDERS,,MODERATE,N,,PROBABLE,NOT RECOVERED/NOT RESOLVED,N,N,N,N,N,N,N,2013-03-16,2013-02-16,,2.0,,71.0,M,WHITE,Xan_Lo,Xanomeline Low Dose,,ASPIRIN; MULTIVITAMINS,The subject experienced erythema. affecting the skin and subcutaneous tissue disorders. Severity: moderate. Relationship to study drug: probable. Outcome: not recovered/not resolved. Treatment arm: xanomeline low dose.,False,2,14,7,1.0
CDISCPILOT01,AE,01-701-1188,2.0,E05,PRURITUS,ITCHING,,PRURITUS,,HLT_0778,,HLGT_0695,,SKIN AND SUBCUTANEOUS TISSUE DISORDERS,,SKIN AND SUBCUTANEOUS TISSUE DISORDERS,,MILD,N,,PROBABLE,NOT RECOVERED/NOT RESOLVED,N,N,N,N,N,N,N,2013-03-02,2013-02-16,,2.0,,71.0,M,WHITE,Xan_Lo,Xanomeline Low Dose,,ASPIRIN; MULTIVITAMINS,The subject experienced pruritus. affecting the skin and subcutaneous tissue disorders. Severity: mild. Relationship to study drug: probable. Outcome: not recovered/not resolved. Treatment arm: xanomeline low dose.,False,1,14,0,1.0
CDISCPILOT01,AE,01-701-1188,4.0,E05,PRURITUS,ITCHING,,PRURITUS,,HLT_0778,,HLGT_0695,,SKIN AND SUBCUTANEOUS TISSUE DISORDERS,,SKIN AND SUBCUTANEOUS TISSUE DISORDERS,,MODERATE,N,,PROBABLE,NOT RECOVERED/NOT RESOLVED,N,N,N,N,N,N,N,2013-03-16,2013-02-16,,2.0,,71.0,M,WHITE,Xan_Lo,Xanomeline Low Dose,,ASPIRIN; MULTIVITAMINS,The subject experienced pruritus. affecting the skin and subcutaneous tissue disorders. Severity: moderate. Relationship to study drug: probable. Outcome: not recovered/not resolved. Treatment arm: xanomeline low dose.,False,2,14,0,1.0
CDISCPILOT01,AE,01-701-1188,5.0,E06,URTICARIA,WELTS,,URTICARIA,,HLT_0420,,HLGT_0705,,SKIN AND SUBCUTANEOUS TISSUE DISORDERS,,SKIN AND SUBCUTANEOUS TISSUE DISORDERS,,MILD,N,,PROBABLE,NOT RECOVERED/NOT RESOLVED,N,N,N,N,N,N,N,2013-03-16,2013-03-04,,18.0,,71.0,M,WHITE,Xan_Lo,Xanomeline Low Dose,,ASPIRIN; MULTIVITAMINS,The subject experienced urticaria. affecting the skin and subcutaneous tissue disorders. Severity: mild. Relationship to study drug: probable. Outcome: not recovered/not resolved. Treatment arm: xanomeline low dose.,False,1,14,34,1.0
CDISCPILOT01,AE,01-701-1188,6.0,E06,URTICARIA,WELTS,,URTICARIA,,HLT_0420,,HLGT_0705,,SKIN AND SUBCUTANEOUS TISSUE DISORDERS,,SKIN AND SUBCUTANEOUS TISSUE DISORDERS,,MODERATE,N,,PROBABLE,NOT RECOVERED/NOT RESOLVED,N,N,N,N,N,N,N,2013-03-25,2013-03-04,,18.0,,71.0,M,WHITE,Xan_Lo,Xanomeline Low Dose,,ASPIRIN; MULTIVITAMINS,The subject experienced urticaria. affecting the skin and subcutaneous tissue disorders. Severity: moderate. Relationship to study drug: probable. Outcome: not recovered/not resolved. Treatment arm: xanomeline low dose.,False,2,14,34,1.0
CDISCPILOT01,AE,01-701-1188,8.0,E10,URTICARIA,WELTS,,URTICARIA,,HLT_0420,,HLGT_0705,,SKIN AND SUBCUTANEOUS TISSUE DISORDERS,,SKIN AND SUBCUTANEOUS TISSUE DISORDERS,,MILD,N,,PROBABLE,NOT RECOVERED/NOT RESOLVED,N,N,N,N,N,N,N,2013-03-25,2013-03-21,,35.0,,71.0,M,WHITE,Xan_Lo,Xanomeline Low Dose,,ASPIRIN; MULTIVITAMINS,The subject experienced urticaria. affecting the skin and subcutaneous tissue disorders. Severity: mild. Relationship to study drug: probable. Outcome: not recovered/not resolved. Treatment arm: xanomeline low dose.,False,1,14,34,1.0
CDISCPILOT01,AE,01-701-1192,13.0,E13,APPLICATION SITE ERYTHEMA,APPLICATION SITE REDNESS,,APPLICATION SITE ERYTHEMA,,HLT_0617,,HLGT_0152,,GENERAL DISORDERS AND ADMINISTRATION SITE CONDITIONS,,GENERAL DISORDERS AND ADMINISTRATION SITE CONDITIONS,,MILD,N,,PROBABLE,NOT RECOVERED/NOT RESOLVED,N,N,N,N,N,N,N,2012-12-13,2012-12-05,,137.0,,80.0,F,WHITE,Xan_Lo,Xanomeline Low Dose,,BIAXIN; EXCEDRIN; HYDROCORTISONE; MULTIVITAMINS; NEOSPORIN /USA/; PROVENTIL; ROBITUSSIN-DM; ROCEPHIN,The subject experienced application site erythema. affecting the general disorders and administration site conditions. Severity: mild. Relationship to study drug: probable. Outcome: not recovered/not resolved. Treatment arm: xanomeline low dose.,False,1,15,9,1.0
CDISCPILOT01,AE,01-701-1192,12.0,E12,APPLICATION SITE IRRITATION,APPLICATION SITE BURNING,,APPLICATION SITE IRRITATION,,HLT_0061,,HLGT_0346,,GENERAL DISORDERS AND ADMINISTRATION SITE CONDITIONS,,GENERAL DISORDERS AND ADMINISTRATION SITE CONDITIONS,,MILD,N,,PROBABLE,NOT RECOVERED/NOT RESOLVED,N,N,N,N,N,N,N,2012-12-13,2012-12-05,2012-12-16,137.0,148.0,80.0,F,WHITE,Xan_Lo,Xanomeline Low Dose,,BIAXIN; EXCEDRIN; HYDROCORTISONE; MULTIVITAMINS; NEOSPORIN /USA/; PROVENTIL; ROBITUSSIN-DM; ROCEPHIN,The subject experienced application site irritation. affecting the general disorders and administration site conditions. Severity: mild. Relationship to study drug: probable. Outcome: not recovered/not resolved. Treatment arm: xanomeline low dose.,False,1,15,8,1.0
CDISCPILOT01,AE,01-701-1192,15.0,E12,APPLICATION SITE IRRITATION,APPLICATION SITE BURNING,,APPLICATION SITE IRRITATION,,HLT_0061,,HLGT_0346,,GENERAL DISORDERS AND ADMINISTRATION SITE CONDITIONS,,GENERAL DISORDERS AND ADMINISTRATION SITE CONDITIONS,,MILD,N,,PROBABLE,RECOVERED/RESOLVED,N,N,N,N,N,N,N,2013-01-11,2012-12-05,2012-12-16,137.0,148.0,80.0,F,WHITE,Xan_Lo,Xanomeline Low Dose,,BIAXIN; EXCEDRIN; HYDROCORTISONE; MULTIVITAMINS; NEOSPORIN /USA/; PROVENTIL; ROBITUSSIN-DM; ROCEPHIN,The subject experienced application site irritation. affecting the general disorders and administration site conditions. Severity: mild. Relationship to study drug: probable. Outcome: recovered/resolved. Treatment arm: xanomeline low dose.,False,1,15,8,1.0
CDISCPILOT01,AE,01-701-1192,14.0,E14,APPLICATION SITE PRURITUS,APPLICATION SITE ITCHING,,APPLICATION SITE PRURITUS,,HLT_0317,,HLGT_0338,,GENERAL DISORDERS AND ADMINISTRATION SITE CONDITIONS,,GENERAL DISORDERS AND ADMINISTRATION SITE CONDITIONS,,MILD,N,,PROBABLE,NOT RECOVERED/NOT RESOLVED,N,N,N,N,N,N,N,2012-12-13,2012-12-05,,137.0,,80.0,F,WHITE,Xan_Lo,Xanomeline Low Dose,,BIAXIN; EXCEDRIN; HYDROCORTISONE; MULTIVITAMINS; NEOSPORIN /USA/; PROVENTIL; ROBITUSSIN-DM; ROCEPHIN,The subject experienced application site pruritus. affecting the general disorders and administration site conditions. Severity: mild. Relationship to study drug: probable. Outcome: not recovered/not resolved. Treatment arm: xanomeline low dose.,False,1,15,5,1.0
CDISCPILOT01,AE,01-701-1192,4.0,E01,COUGH,COUGH,,COUGH,,HLT_0701,,HLGT_0280,,"RESPIRATORY, THORACIC AND MEDIASTINAL DISORDERS",,"RESPIRATORY, THORACIC AND MEDIASTINAL DISORDERS",,MODERATE,N,,NONE,NOT RECOVERED/NOT RESOLVED,N,N,N,N,N,N,N,2012-09-23,2010-06,,,,80.0,F,WHITE,Xan_Lo,Xanomeline Low Dose,,BIAXIN; EXCEDRIN; HYDROCORTISONE; MULTIVITAMINS; NEOSPORIN /USA/; PROVENTIL; ROBITUSSIN-DM; ROCEPHIN,"The subject experienced cough. affecting the respiratory, thoracic and mediastinal disorders. Severity: moderate. Relationship to study drug: none. Outcome: not recovered/not resolved. Treatment arm: xanomeline low dose.",False,2,15,6,1.0
CDISCPILOT01,AE,01-701-1192,9.0,E01,COUGH,COUGH,,COUGH,,HLT_0701,,HLGT_0280,,"RESPIRATORY, THORACIC AND MEDIASTINAL DISORDERS",,"RESPIRATORY, THORACIC AND MEDIASTINAL DISORDERS",,MILD,N,,NONE,NOT RECOVERED/NOT RESOLVED,N,N,N,N,N,N,N,2012-10-14,2010-06,,,,80.0,F,WHITE,Xan_Lo,Xanomeline Low Dose,,BIAXIN; EXCEDRIN; HYDROCORTISONE; MULTIVITAMINS; NEOSPORIN /USA/; PROVENTIL; ROBITUSSIN-DM; ROCEPHIN,"The subject experienced cough. affecting the respiratory, thoracic and mediastinal disorders. Severity: mild. Relationship to study drug: none. Outcome: not recovered/not resolved. Treatment arm: xanomeline low dose.",False,1,15,6,1.0
CDISCPILOT01,AE,01-701-1192,3.0,E09,ERYTHEMA,ERYTHEMA FACIAL,,ERYTHEMA,,HLT_0284,,HLGT_0192,,SKIN AND SUBCUTANEOUS TISSUE DISORDERS,,SKIN AND SUBCUTANEOUS TISSUE DISORDERS,,MILD,N,,NONE,NOT RECOVERED/NOT RESOLVED,N,N,N,N,N,N,N,2012-08-07,2012-08-07,2012-09-14,17.0,55.0,80.0,F,WHITE,Xan_Lo,Xanomeline Low Dose,,BIAXIN; EXCEDRIN; HYDROCORTISONE; MULTIVITAMINS; NEOSPORIN /USA/; PROVENTIL; ROBITUSSIN-DM; ROCEPHIN,The subject experienced erythema. affecting the skin and subcutaneous tissue disorders. Severity: mild. Relationship to study drug: none. Outcome: not recovered/not resolved. Treatment arm: xanomeline low dose.,False,1,14,7,1.0
CDISCPILOT01,AE,01-701-1192,6.0,E09,ERYTHEMA,ERYTHEMA FACIAL,,ERYTHEMA,,HLT_0284,,HLGT_0192,,SKIN AND SUBCUTANEOUS TISSUE DISORDERS,,SKIN AND SUBCUTANEOUS TISSUE DISORDERS,,MILD,N,,NONE,RECOVERED/RESOLVED,N,N,N,N,N,N,N,2012-09-23,2012-08-07,2012-09-14,17.0,55.0,80.0,F,WHITE,Xan_Lo,Xanomeline Low Dose,,BIAXIN; EXCEDRIN; HYDROCORTISONE; MULTIVITAMINS; NEOSPORIN /USA/; PROVENTIL; ROBITUSSIN-DM; ROCEPHIN,The subject experienced erythema. affecting the skin and subcutaneous tissue disorders. Severity: mild. Relationship to study drug: none. Outcome: recovered/resolved. Treatment arm: xanomeline low dose.,False,1,14,7,1.0
CDISCPILOT01,AE,01-701-1192,8.0,E11,MUSCULAR WEAKNESS,MUSCULAR WEAKNESS,,MUSCULAR WEAKNESS,,HLT_0444,,HLGT_0211,,MUSCULOSKELETAL AND CONNECTIVE TISSUE DISORDERS,,MUSCULOSKELETAL AND CONNECTIVE TISSUE DISORDERS,,MODERATE,N,,NONE,NOT RECOVERED/NOT RESOLVED,N,N,N,N,N,N,N,2012-09-23,2012-09-07,2012-09-30,48.0,71.0,80.0,F,WHITE,Xan_Lo,Xanomeline Low Dose,,BIAXIN; EXCEDRIN; HYDROCORTISONE; MULTIVITAMINS; NEOSPORIN /USA/; PROVENTIL; ROBITUSSIN-DM; ROCEPHIN,The subject experienced muscular weakness. affecting the musculoskeletal and connective tissue disorders. Severity: moderate. Relationship to study drug: none. Outcome: not recovered/not resolved. Treatment arm: xanomeline low dose.,False,2,14,12,1.0
CDISCPILOT01,AE,01-701-1192,11.0,E11,MUSCULAR WEAKNESS,MUSCULAR WEAKNESS,,MUSCULAR WEAKNESS,,HLT_0444,,HLGT_0211,,MUSCULOSKELETAL AND CONNECTIVE TISSUE DISORDERS,,MUSCULOSKELETAL AND CONNECTIVE TISSUE DISORDERS,,MODERATE,N,,NONE,RECOVERED/RESOLVED,N,N,N,N,N,N,N,2012-10-14,2012-09-07,2012-09-30,48.0,71.0,80.0,F,WHITE,Xan_Lo,Xanomeline Low Dose,,BIAXIN; EXCEDRIN; HYDROCORTISONE; MULTIVITAMINS; NEOSPORIN /USA/; PROVENTIL; ROBITUSSIN-DM; ROCEPHIN,The subject experienced muscular weakness. affecting the musculoskeletal and connective tissue disorders. Severity: moderate. Relationship to study drug: none. Outcome: recovered/resolved. Treatment arm: xanomeline low dose.,False,2,14,12,1.0
CDISCPILOT01,AE,01-701-1192,1.0,E06,NASAL MUCOSA BIOPSY,NASAL MUCOSA BIOPSY,,NASAL MUCOSA BIOPSY,,HLT_0680,,HLGT_0396,,INVESTIGATIONS,,INVESTIGATIONS,,MILD,N,,NONE,RECOVERED/RESOLVED,N,N,N,N,N,N,N,2012-08-07,2012-08-03,2012-08-03,13.0,13.0,80.0,F,WHITE,Xan_Lo,Xanomeline Low Dose,,BIAXIN; EXCEDRIN; HYDROCORTISONE; MULTIVITAMINS; NEOSPORIN /USA/; PROVENTIL; ROBITUSSIN-DM; ROCEPHIN,The subject experienced nasal mucosa biopsy. affecting the investigations. Severity: mild. Relationship to study drug: none. Outcome: recovered/resolved. Treatment arm: xanomeline low dose.,False,1,12,6,0.8794857074917997
CDISCPILOT01,AE,01-701-1192,7.0,E10,PNEUMONIA,PNEUMONIA,,PNEUMONIA,,HLT_0251,,HLGT_0671,,INFECTIONS AND INFESTATIONS,,INFECTIONS AND INFESTATIONS,,MODERATE,N,,NONE,NOT RECOVERED/NOT RESOLVED,N,N,N,N,Y,N,N,2012-09-23,2012-09-07,2012-10-06,48.0,77.0,80.0,F,WHITE,Xan_Lo,Xanomeline Low Dose,,BIAXIN; EXCEDRIN; HYDROCORTISONE; MULTIVITAMINS; NEOSPORIN /USA/; PROVENTIL; ROBITUSSIN-DM; ROCEPHIN,The subject experienced pneumonia. affecting the infections and infestations. Severity: moderate. Relationship to study drug: none. Outcome: not recovered/not resolved. Treatment arm: xanomeline low dose.,False,2,14,6,0.4308367781797622
CDISCPILOT01,AE,01-701-1192,10.0,E10,PNEUMONIA,PNEUMONIA,,PNEUMONIA,,HLT_0251,,HLGT_0671,,INFECTIONS AND INFESTATIONS,,INFECTIONS AND INFESTATIONS,,MODERATE,N,,NONE,RECOVERED/RESOLVED,N,N,N,N,Y,N,N,2012-10-14,2012-09-07,2012-10-06,48.0,77.0,80.0,F,WHITE,Xan_Lo,Xanomeline Low Dose,,BIAXIN; EXCEDRIN; HYDROCORTISONE; MULTIVITAMINS; NEOSPORIN /USA/; PROVENTIL; ROBITUSSIN-DM; ROCEPHIN,The subject experienced pneumonia. affecting the infections and infestations. Severity: moderate. Relationship to study drug: none. Outcome: recovered/resolved. Treatment arm: xanomeline low dose.,False,2,14,6,0.5412105862042386
CDISCPILOT01,AE,01-701-1192,2.0,E08,SECRETION DISCHARGE,SECRETION DISCHARGE,,SECRETION DISCHARGE,,HLT_0683,,HLGT_0575,,GENERAL DISORDERS AND ADMINISTRATION SITE CONDITIONS,,GENERAL DISORDERS AND ADMINISTRATION SITE CONDITIONS,,MILD,N,,NONE,NOT RECOVERED/NOT RESOLVED,N,N,N,N,N,N,N,2012-08-07,2012-08-07,2012-09-14,17.0,55.0,80.0,F,WHITE,Xan_Lo,Xanomeline Low Dose,,BIAXIN; EXCEDRIN; HYDROCORTISONE; MULTIVITAMINS; NEOSPORIN /USA/; PROVENTIL; ROBITUSSIN-DM; ROCEPHIN,The subject experienced secretion discharge. affecting the general disorders and administration site conditions. Severity: mild. Relationship to study drug: none. Outcome: not recovered/not resolved. Treatment arm: xanomeline low dose.,False,1,14,29,0.9728864115018648
CDISCPILOT01,AE,01-701-1192,5.0,E08,SECRETION DISCHARGE,SECRETION DISCHARGE,,SECRETION DISCHARGE,,HLT_0683,,HLGT_0575,,GENERAL DISORDERS AND ADMINISTRATION SITE CONDITIONS,,GENERAL DISORDERS AND ADMINISTRATION SITE CONDITIONS,,MILD,N,,NONE,RECOVERED/RESOLVED,N,N,N,N,N,N,N,2012-09-23,2012-08-07,2012-09-14,17.0,55.0,80.0,F,WHITE,Xan_Lo,Xanomeline Low Dose,,BIAXIN; EXCEDRIN; HYDROCORTISONE; MULTIVITAMINS; NEOSPORIN /USA/; PROVENTIL; ROBITUSSIN-DM; ROCEPHIN,The subject experienced secretion discharge. affecting the general disorders and administration site conditions. Severity: mild. Relationship to study drug: none. Outcome: recovered/resolved. Treatment arm: xanomeline low dose.,False,1,14,29,0.9946499643938782
CDISCPILOT01,AE,01-701-1203,1.0,E05,EYE LASER SURGERY,EYE LASER SURGERY,,EYE LASER SURGERY,,HLT_0355,,HLGT_0189,,SURGICAL AND MEDICAL PROCEDURES,,SURGICAL AND MEDICAL PROCEDURES,,MILD,N,,NONE,RECOVERED/RESOLVED,N,N,N,N,N,N,N,2013-03-30,2013-03-21,2013-03-21,48.0,48.0,81.0,F,BLACK OR AFRICAN AMERICAN,Pbo,Placebo,,ALPHAGAN; MOTRIN; PILOSTAT; TIMOPTIC; TRUSOPT; TYLENOL,The subject experienced eye laser surgery. affecting the surgical and medical procedures. Severity: mild. Relationship to study drug: none. Outcome: recovered/resolved. Treatment arm: placebo.,False,1,13,15,0.5691633430607157
CDISCPILOT01,AE,01-701-1211,5.0,E05,APPLICATION SITE ERYTHEMA,APPLICATION SITE REDNESS,,APPLICATION SITE ERYTHEMA,,HLT_0617,,HLGT_0152,,GENERAL DISORDERS AND ADMINISTRATION SITE CONDITIONS,,GENERAL DISORDERS AND ADMINISTRATION SITE CONDITIONS,,MILD,N,,POSSIBLE,NOT RECOVERED/NOT RESOLVED,N,N,N,N,N,N,N,2012-12-11,2012-11-29,,15.0,,76.0,F,WHITE,Xan_Lo,Xanomeline Low Dose,Y,DEMEROL; HYDROCORTISONE; LOMOTIL; MYLANTA; TYLENOL W/CODEINE NO. 3,"Subject 01-701-1211, a 76-year-old woman with Alzheimer�s dementia, began receiving xanomeline low dose on 15 November 2012.  The subject was diagnosed with Alzheimer�s dementia in 2010.  The subject also had non-insulin dependent diabetes mellitus, which was considered to be mild in severity.  The subject experienced sudden death on 14 January 2013.  This death was considered by the investigator to be unrelated to study medication.  No action was taken for this event and study medication was not discontinued prior to death.  Eight other adverse events were reported for this subject yet none were classified as being serious and none appeared to contribute to the sudden death.",False,1,30,30,1.0
CDISCPILOT01,AE,01-701-1211,1.0,E08,APPLICATION SITE PRURITUS,APPLICATION SITE ITCHING,,APPLICATION SITE PRURITUS,,HLT_0317,,HLGT_0338,,GENERAL DISORDERS AND ADMINISTRATION SITE CONDITIONS,,GENERAL DISORDERS AND ADMINISTRATION SITE CONDITIONS,,MILD,N,,POSSIBLE,NOT RECOVERED/NOT RESOLVED,N,N,N,N,N,N,N,2012-11-28,2012-11-16,,2.0,,76.0,F,WHITE,Xan_Lo,Xanomeline Low Dose,Y,DEMEROL; HYDROCORTISONE; LOMOTIL; MYLANTA; TYLENOL W/CODEINE NO. 3,"Subject 01-701-1211, a 76-year-old woman with Alzheimer�s dementia, began receiving xanomeline low dose on 15 November 2012.  The subject was diagnosed with Alzheimer�s dementia in 2010.  The subject also had non-insulin dependent diabetes mellitus, which was considered to be mild in severity.  The subject experienced sudden death on 14 January 2013.  This death was considered by the investigator to be unrelated to study medication.  No action was taken for this event and study medication was not discontinued prior to death.  Eight other adverse events were reported for this subject yet none were classified as being serious and none appeared to contribute to the sudden death.",False,1,30,30,0.1544453867189083
CDISCPILOT01,AE,01-701-1211,7.0,E12,CONFUSIONAL STATE,CONFUSION,,CONFUSIONAL STATE,,HLT_0642,,HLGT_0329,,PSYCHIATRIC DISORDERS,,PSYCHIATRIC DISORDERS,,MODERATE,N,,NONE,NOT RECOVERED/NOT RESOLVED,N,N,N,N,N,N,N,2013-01-14,2013-01-11,,58.0,,76.0,F,WHITE,Xan_Lo,Xanomeline Low Dose,Y,DEMEROL; HYDROCORTISONE; LOMOTIL; MYLANTA; TYLENOL W/CODEINE NO. 3,"Subject 01-701-1211, a 76-year-old woman with Alzheimer�s dementia, began receiving xanomeline low dose on 15 November 2012.  The subject was diagnosed with Alzheimer�s dementia in 2010.  The subject also had non-insulin dependent diabetes mellitus, which was considered to be mild in severity.  The subject experienced sudden death on 14 January 2013.  This death was considered by the investigator to be unrelated to study medication.  No action was taken for this event and study medication was not discontinued prior to death.  Eight other adverse events were reported for this subject yet none were classified as being serious and none appeared to contribute to the sudden death.",False,2,30,30,1.0
CDISCPILOT01,AE,01-701-1211,8.0,E13,DYSPNOEA,SHORTNESS OF BREATH,,DYSPNOEA,,HLT_0296,,HLGT_0255,,"RESPIRATORY, THORACIC AND MEDIASTINAL DISORDERS",,"RESPIRATORY, THORACIC AND MEDIASTINAL DISORDERS",,MODERATE,N,,NONE,NOT RECOVERED/NOT RESOLVED,N,N,N,N,N,N,N,2013-01-14,2013-01-11,,58.0,,76.0,F,WHITE,Xan_Lo,Xanomeline Low Dose,Y,DEMEROL; HYDROCORTISONE; LOMOTIL; MYLANTA; TYLENOL W/CODEINE NO. 3,"Subject 01-701-1211, a 76-year-old woman with Alzheimer�s dementia, began receiving xanomeline low dose on 15 November 2012.  The subject was diagnosed with Alzheimer�s dementia in 2010.  The subject also had non-insulin dependent diabetes mellitus, which was considered to be mild in severity.  The subject experienced sudden death on 14 January 2013.  This death was considered by the investigator to be unrelated to study medication.  No action was taken for this event and study medication was not discontinued prior to death.  Eight other adverse events were reported for this subject yet none were classified as being serious and none appeared to contribute to the sudden death.",False,2,30,30,0.6635044593131344
CDISCPILOT01,AE,01-701-1211,4.0,E09,INCONTINENCE,INCONTINENCE,,INCONTINENCE,,HLT_0560,,HLGT_0503,,RENAL AND URINARY DISORDERS,,RENAL AND URINARY DISORDERS,,MILD,N,,NONE,NOT RECOVERED/NOT RESOLVED,N,N,N,N,N,N,N,2012-11-28,2012-11-22,,8.0,,76.0,F,WHITE,Xan_Lo,Xanomeline Low Dose,Y,DEMEROL; HYDROCORTISONE; LOMOTIL; MYLANTA; TYLENOL W/CODEINE NO. 3,"Subject 01-701-1211, a 76-year-old woman with Alzheimer�s dementia, began receiving xanomeline low dose on 15 November 2012.  The subject was diagnosed with Alzheimer�s dementia in 2010.  The subject also had non-insulin dependent diabetes mellitus, which was considered to be mild in severity.  The subject experienced sudden death on 14 January 2013.  This death was considered by the investigator to be unrelated to study medication.  No action was taken for this event and study medication was not discontinued prior to death.  Eight other adverse events were reported for this subject yet none were classified as being serious and none appeared to contribute to the sudden death.",False,1,30,30,0.2839300070253951
CDISCPILOT01,AE,01-701-1211,2.0,E03,JOINT DISLOCATION,SHOULDER DISLOCATION,,JOINT DISLOCATION,,HLT_0035,,HLGT_0227,,"INJURY, POISONING AND PROCEDURAL COMPLICATIONS",,"INJURY, POISONING AND PROCEDURAL COMPLICATIONS",,MODERATE,N,,NONE,RECOVERED/RESOLVED,N,N,N,N,N,N,N,2012-11-28,2012-11-21,2012-11-21,7.0,7.0,76.0,F,WHITE,Xan_Lo,Xanomeline Low Dose,Y,DEMEROL; HYDROCORTISONE; LOMOTIL; MYLANTA; TYLENOL W/CODEINE NO. 3,"Subject 01-701-1211, a 76-year-old woman with Alzheimer�s dementia, began receiving xanomeline low dose on 15 November 2012.  The subject was diagnosed with Alzheimer�s dementia in 2010.  The subject also had non-insulin dependent diabetes mellitus, which was considered to be mild in severity.  The subject experienced sudden death on 14 January 2013.  This death was considered by the investigator to be unrelated to study medication.  No action was taken for this event and study medication was not discontinued prior to death.  Eight other adverse events were reported for this subject yet none were classified as being serious and none appeared to contribute to the sudden death.",False,2,30,30,1.0
CDISCPILOT01,AE,01-701-1211,3.0,E04,SHOULDER PAIN,SHOULDER PAIN,,SHOULDER PAIN,,HLT_0527,,HLGT_0288,,MUSCULOSKELETAL AND CONNECTIVE TISSUE DISORDERS,,MUSCULOSKELETAL AND CONNECTIVE TISSUE DISORDERS,,MILD,N,,NONE,NOT RECOVERED/NOT RESOLVED,N,N,N,N,N,N,N,2012-11-28,2012-11-21,,7.0,,76.0,F,WHITE,Xan_Lo,Xanomeline Low Dose,Y,DEMEROL; HYDROCORTISONE; LOMOTIL; MYLANTA; TYLENOL W/CODEINE NO. 3,"Subject 01-701-1211, a 76-year-old woman with Alzheimer�s dementia, began receiving xanomeline low dose on 15 November 2012.  The subject was diagnosed with Alzheimer�s dementia in 2010.  The subject also had non-insulin dependent diabetes mellitus, which was considered to be mild in severity.  The subject experienced sudden death on 14 January 2013.  This death was considered by the investigator to be unrelated to study medication.  No action was taken for this event and study medication was not discontinued prior to death.  Eight other adverse events were reported for this subject yet none were classified as being serious and none appeared to contribute to the sudden death.",False,1,30,30,0.7302920097685928
CDISCPILOT01,AE,01-701-1211,6.0,E06,SKIN LACERATION,LACERATION OF FACE,,SKIN LACERATION,,HLT_0075,,HLGT_0118,,"INJURY, POISONING AND PROCEDURAL COMPLICATIONS",,"INJURY, POISONING AND PROCEDURAL COMPLICATIONS",,MILD,N,,NONE,NOT RECOVERED/NOT RESOLVED,N,N,N,N,N,N,N,2012-12-11,2012-12-09,,25.0,,76.0,F,WHITE,Xan_Lo,Xanomeline Low Dose,Y,DEMEROL; HYDROCORTISONE; LOMOTIL; MYLANTA; TYLENOL W/CODEINE NO. 3,"Subject 01-701-1211, a 76-year-old woman with Alzheimer�s dementia, began receiving xanomeline low dose on 15 November 2012.  The subject was diagnosed with Alzheimer�s dementia in 2010.  The subject also had non-insulin dependent diabetes mellitus, which was considered to be mild in severity.  The subject experienced sudden death on 14 January 2013.  This death was considered by the investigator to be unrelated to study medication.  No action was taken for this event and study medication was not discontinued prior to death.  Eight other adverse events were reported for this subject yet none were classified as being serious and none appeared to contribute to the sudden death.",False,1,30,30,1.0
CDISCPILOT01,AE,01-701-1211,9.0,E11,SUDDEN DEATH,SUDDEN DEATH,,SUDDEN DEATH,,HLT_0142,,HLGT_0272,,GENERAL DISORDERS AND ADMINISTRATION SITE CONDITIONS,,GENERAL DISORDERS AND ADMINISTRATION SITE CONDITIONS,,SEVERE,N,,NONE,FATAL,N,N,N,Y,N,Y,N,2013-01-14,2013-01-14,2013-01-14,61.0,61.0,76.0,F,WHITE,Xan_Lo,Xanomeline Low Dose,Y,DEMEROL; HYDROCORTISONE; LOMOTIL; MYLANTA; TYLENOL W/CODEINE NO. 3,"Subject 01-701-1211, a 76-year-old woman with Alzheimer�s dementia, began receiving xanomeline low dose on 15 November 2012.  The subject was diagnosed with Alzheimer�s dementia in 2010.  The subject also had non-insulin dependent diabetes mellitus, which was considered to be mild in severity.  The subject experienced sudden death on 14 January 2013.  This death was considered by the investigator to be unrelated to study medication.  No action was taken for this event and study medication was not discontinued prior to death.  Eight other adverse events were reported for this subject yet none were classified as being serious and none appeared to contribute to the sudden death.",False,3,30,30,1.0
CDISCPILOT01,AE,01-701-1239,4.0,E13,APPLICATION SITE IRRITATION,APPLICATION SITE IRRITATION,,APPLICATION SITE IRRITATION,,HLT_0061,,HLGT_0346,,GENERAL DISORDERS AND ADMINISTRATION SITE CONDITIONS,,GENERAL DISORDERS AND ADMINISTRATION SITE CONDITIONS,,MILD,N,,PROBABLE,NOT RECOVERED/NOT RESOLVED,N,N,N,N,N,N,N,2014-01-25,2014-01-20,2014-02-08,10.0,29.0,56.0,M,WHITE,Xan_Hi,Xanomeline High Dose,,ADVIL; DIABETA; MOTRIN,The subject experienced application site irritation. affecting the general disorders and administration site conditions. Severity: mild. Relationship to study drug: probable. Outcome: not recovered/not resolved. Treatment arm: xanomeline high dose.,False,1,15,8,0.19968984131158463
CDISCPILOT01,AE,01-701-1239,5.0,E13,APPLICATION SITE IRRITATION,APPLICATION SITE IRRITATION,,APPLICATION SITE IRRITATION,,HLT_0061,,HLGT_0346,,GENERAL DISORDERS AND ADMINISTRATION SITE CONDITIONS,,GENERAL DISORDERS AND ADMINISTRATION SITE CONDITIONS,,MILD,N,,PROBABLE,RECOVERED/RESOLVED,N,N,N,N,N,N,N,2014-02-10,2014-01-20,2014-02-08,10.0,29.0,56.0,M,WHITE,Xan_Hi,Xanomeline High Dose,,ADVIL; DIABETA; MOTRIN,The subject experienced application site irritation. affecting the general disorders and administration site conditions. Severity: mild. Relationship to study drug: probable. Outcome: recovered/resolved. Treatment arm: xanomeline high dose.,False,1,15,8,0.07779163524623064
CDISCPILOT01,AE,01-701-1239,1.0,E11,ERYTHEMA,ERYTHEMA,,ERYTHEMA,,HLT_0284,,HLGT_0192,,SKIN AND SUBCUTANEOUS TISSUE DISORDERS,,SKIN AND SUBCUTANEOUS TISSUE DISORDERS,,MILD,N,,POSSIBLE,NOT RECOVERED/NOT RESOLVED,N,N,N,N,N,N,N,2014-01-25,2014-01-12,,2.0,,56.0,M,WHITE,Xan_Hi,Xanomeline High Dose,,ADVIL; DIABETA; MOTRIN,The subject experienced erythema. affecting the skin and subcutaneous tissue disorders. Severity: mild. Relationship to study drug: possible. Outcome: not recovered/not resolved. Treatment arm: xanomeline high dose.,False,1,14,7,1.0
CDISCPILOT01,AE,01-701-1239,6.0,E11,ERYTHEMA,ERYTHEMA,,ERYTHEMA,,HLT_0284,,HLGT_0192,,SKIN AND SUBCUTANEOUS TISSUE DISORDERS,,SKIN AND SUBCUTANEOUS TISSUE DISORDERS,,MODERATE,N,,POSSIBLE,NOT RECOVERED/NOT RESOLVED,N,N,N,N,N,N,N,2014-02-19,2014-01-12,,2.0,,56.0,M,WHITE,Xan_Hi,Xanomeline High Dose,,ADVIL; DIABETA; MOTRIN,The subject experienced erythema. affecting the skin and subcutaneous tissue disorders. Severity: moderate. Relationship to study drug: possible. Outcome: not recovered/not resolved. Treatment arm: xanomeline high dose.,False,2,14,7,0.049618954668487314
CDISCPILOT01,AE,01-701-1239,9.0,E16,FATIGUE,FATIGUE,,FATIGUE,,HLT_0043,,HLGT_0181,,GENERAL DISORDERS AND ADMINISTRATION SITE CONDITIONS,,GENERAL DISORDERS AND ADMINISTRATION SITE CONDITIONS,,MILD,N,,REMOTE,NOT RECOVERED/NOT RESOLVED,N,N,N,N,N,N,N,2014-04-02,2014-03,,,,56.0,M,WHITE,Xan_Hi,Xanomeline High Dose,,ADVIL; DIABETA; MOTRIN,The subject experienced fatigue. affecting the general disorders and administration site conditions. Severity: mild. Relationship to study drug: remote. Outcome: not recovered/not resolved. Treatment arm: xanomeline high dose.,False,1,15,23,0.1904423796709902
CDISCPILOT01,AE,01-701-1239,10.0,E17,HORDEOLUM,STYE,,HORDEOLUM,,HLT_0604,,HLGT_0290,,INFECTIONS AND INFESTATIONS,,INFECTIONS AND INFESTATIONS,,MILD,N,,NONE,NOT RECOVERED/NOT RESOLVED,N,N,N,N,N,N,N,2014-05-02,2014-04,,,,56.0,M,WHITE,Xan_Hi,Xanomeline High Dose,,ADVIL; DIABETA; MOTRIN,The subject experienced hordeolum. affecting the infections and infestations. Severity: mild. Relationship to study drug: none. Outcome: not recovered/not resolved. Treatment arm: xanomeline high dose.,False,1,14,6,0.1999049363088928
CDISCPILOT01,AE,01-701-1239,3.0,E12,PRURITUS,ITCHING,,PRURITUS,,HLT_0778,,HLGT_0695,,SKIN AND SUBCUTANEOUS TISSUE DISORDERS,,SKIN AND SUBCUTANEOUS TISSUE DISORDERS,,MILD,N,,POSSIBLE,NOT RECOVERED/NOT RESOLVED,N,N,N,N,N,N,N,2014-01-25,2014-01-13,,3.0,,56.0,M,WHITE,Xan_Hi,Xanomeline High Dose,,ADVIL; DIABETA; MOTRIN,The subject experienced pruritus. affecting the skin and subcutaneous tissue disorders. Severity: mild. Relationship to study drug: possible. Outcome: not recovered/not resolved. Treatment arm: xanomeline high dose.,False,1,14,0,0.25999951383961295
CDISCPILOT01,AE,01-701-1239,2.0,E15,SKIN ODOUR ABNORMAL,SKIN ODOR ABNORMAL,,SKIN ODOUR ABNORMAL,,HLT_0510,,HLGT_0184,,SKIN AND SUBCUTANEOUS TISSUE DISORDERS,,SKIN AND SUBCUTANEOUS TISSUE DISORDERS,,MILD,N,,REMOTE,NOT RECOVERED/NOT RESOLVED,N,N,N,N,N,N,N,2014-01-25,2014-01-12,,2.0,,56.0,M,WHITE,Xan_Hi,Xanomeline High Dose,,ADVIL; DIABETA; MOTRIN,The subject experienced skin odour abnormal. affecting the skin and subcutaneous tissue disorders. Severity: mild. Relationship to study drug: remote. Outcome: not recovered/not resolved. Treatment arm: xanomeline high dose.,False,1,17,3,0.626039327579735
CDISCPILOT01,AE,01-701-1239,7.0,E14,UPPER RESPIRATORY TRACT INFECTION,UPPER RESPIRATORY INFECTION,,UPPER RESPIRATORY TRACT INFECTION,,HLT_0520,,HLGT_0489,,INFECTIONS AND INFESTATIONS,,INFECTIONS AND INFESTATIONS,,MILD,N,,NONE,NOT RECOVERED/NOT RESOLVED,N,N,N,N,N,N,N,2014-03-06,2014-02-20,2014-03-12,41.0,61.0,56.0,M,WHITE,Xan_Hi,Xanomeline High Dose,,ADVIL; DIABETA; MOTRIN,The subject experienced upper respiratory tract infection. affecting the infections and infestations. Severity: mild. Relationship to study drug: none. Outcome: not recovered/not resolved. Treatment arm: xanomeline high dose.,False,1,14,6,1.0
CDISCPILOT01,AE,01-701-1239,8.0,E14,UPPER RESPIRATORY TRACT INFECTION,UPPER RESPIRATORY INFECTION,,UPPER RESPIRATORY TRACT INFECTION,,HLT_0520,,HLGT_0489,,INFECTIONS AND INFESTATIONS,,INFECTIONS AND INFESTATIONS,,MILD,N,,NONE,RECOVERED/RESOLVED,N,N,N,N,N,N,N,2014-04-02,2014-02-20,2014-03-12,41.0,61.0,56.0,M,WHITE,Xan_Hi,Xanomeline High Dose,,ADVIL; DIABETA; MOTRIN,The subject experienced upper respiratory tract infection. affecting the infections and infestations. Severity: mild. Relationship to study drug: none. Outcome: recovered/resolved. Treatment arm: xanomeline high dose.,False,1,14,6,1.0
CDISCPILOT01,AE,01-701-1275,7.0,E09,COUGH,COUGH,,COUGH,,HLT_0701,,HLGT_0280,,"RESPIRATORY, THORACIC AND MEDIASTINAL DISORDERS",,"RESPIRATORY, THORACIC AND MEDIASTINAL DISORDERS",,MILD,N,,NONE,NOT RECOVERED/NOT RESOLVED,N,N,N,N,N,N,N,2014-03-22,2014-03-12,2014-03-27,34.0,49.0,61.0,M,AMERICAN INDIAN OR ALASKA NATIVE,Xan_Hi,Xanomeline High Dose,,TYLENOL; VITAMIN C,"The subject experienced cough. affecting the respiratory, thoracic and mediastinal disorders. Severity: mild. Relationship to study drug: none. Outcome: not recovered/not resolved. Treatment arm: xanomeline high dose.",False,1,15,6,1.0
CDISCPILOT01,AE,01-701-1275,9.0,E09,COUGH,COUGH,,COUGH,,HLT_0701,,HLGT_0280,,"RESPIRATORY, THORACIC AND MEDIASTINAL DISORDERS",,"RESPIRATORY, THORACIC AND MEDIASTINAL DISORDERS",,MILD,N,,NONE,RECOVERED/RESOLVED,N,N,N,N,N,N,N,2014-04-05,2014-03-12,2014-03-27,34.0,49.0,61.0,M,AMERICAN INDIAN OR ALASKA NATIVE,Xan_Hi,Xanomeline High Dose,,TYLENOL; VITAMIN C,"The subject experienced cough. affecting the respiratory, thoracic and mediastinal disorders. Severity: mild. Relationship to study drug: none. Outcome: recovered/resolved. Treatment arm: xanomeline high dose.",False,1,15,6,1.0
CDISCPILOT01,AE,01-701-1275,3.0,E06,ERYTHEMA,ERYTHEMA,,ERYTHEMA,,HLT_0284,,HLGT_0192,,SKIN AND SUBCUTANEOUS TISSUE DISORDERS,,SKIN AND SUBCUTANEOUS TISSUE DISORDERS,,MILD,N,,POSSIBLE,NOT RECOVERED/NOT RESOLVED,N,N,N,N,N,N,N,2014-03-07,2014-02-24,2014-06-12,18.0,126.0,61.0,M,AMERICAN INDIAN OR ALASKA NATIVE,Xan_Hi,Xanomeline High Dose,,TYLENOL; VITAMIN C,The subject experienced erythema. affecting the skin and subcutaneous tissue disorders. Severity: mild. Relationship to study drug: possible. Outcome: not recovered/not resolved. Treatment arm: xanomeline high dose.,False,1,14,7,0.2961644703335678
CDISCPILOT01,AE,01-701-1275,12.0,E06,ERYTHEMA,ERYTHEMA,,ERYTHEMA,,HLT_0284,,HLGT_0192,,SKIN AND SUBCUTANEOUS TISSUE DISORDERS,,SKIN AND SUBCUTANEOUS TISSUE DISORDERS,,MILD,N,,POSSIBLE,RECOVERED/RESOLVED,N,N,N,N,N,N,N,2014-06-14,2014-02-24,2014-06-12,18.0,126.0,61.0,M,AMERICAN INDIAN OR ALASKA NATIVE,Xan_Hi,Xanomeline High Dose,,TYLENOL; VITAMIN C,The subject experienced erythema. affecting the skin and subcutaneous tissue disorders. Severity: mild. Relationship to study drug: possible. Outcome: recovered/resolved. Treatment arm: xanomeline high dose.,False,1,14,7,0.08916109661583996
CDISCPILOT01,AE,01-701-1275,8.0,E10,NASAL CONGESTION,NASAL CONGESTION,,NASAL CONGESTION,,HLT_0118,,HLGT_0549,,"RESPIRATORY, THORACIC AND MEDIASTINAL DISORDERS",,"RESPIRATORY, THORACIC AND MEDIASTINAL DISORDERS",,MILD,N,,NONE,NOT RECOVERED/NOT RESOLVED,N,N,N,N,N,N,N,2014-03-22,2014-03-12,2014-03-27,34.0,49.0,61.0,M,AMERICAN INDIAN OR ALASKA NATIVE,Xan_Hi,Xanomeline High Dose,,TYLENOL; VITAMIN C,"The subject experienced nasal congestion. affecting the respiratory, thoracic and mediastinal disorders. Severity: mild. Relationship to study drug: none. Outcome: not recovered/not resolved. Treatment arm: xanomeline high dose.",False,1,15,6,1.0
CDISCPILOT01,AE,01-701-1275,10.0,E10,NASAL CONGESTION,NASAL CONGESTION,,NASAL CONGESTION,,HLT_0118,,HLGT_0549,,"RESPIRATORY, THORACIC AND MEDIASTINAL DISORDERS",,"RESPIRATORY, THORACIC AND MEDIASTINAL DISORDERS",,MILD,N,,NONE,RECOVERED/RESOLVED,N,N,N,N,N,N,N,2014-04-05,2014-03-12,2014-03-27,34.0,49.0,61.0,M,AMERICAN INDIAN OR ALASKA NATIVE,Xan_Hi,Xanomeline High Dose,,TYLENOL; VITAMIN C,"The subject experienced nasal congestion. affecting the respiratory, thoracic and mediastinal disorders. Severity: mild. Relationship to study drug: none. Outcome: recovered/resolved. Treatment arm: xanomeline high dose.",False,1,15,6,1.0
CDISCPILOT01,AE,01-701-1275,1.0,E04,NAUSEA,NAUSEA,,NAUSEA,,HLT_0742,,HLGT_0326,,GASTROINTESTINAL DISORDERS,,GASTROINTESTINAL DISORDERS,,MILD,N,,POSSIBLE,NOT RECOVERED/NOT RESOLVED,N,N,N,N,N,N,N,2014-02-22,2014-02-13,2014-06-03,7.0,117.0,61.0,M,AMERICAN INDIAN OR ALASKA NATIVE,Xan_Hi,Xanomeline High Dose,,TYLENOL; VITAMIN C,The subject experienced nausea. affecting the gastrointestinal disorders. Severity: mild. Relationship to study drug: possible. Outcome: not recovered/not resolved. Treatment arm: xanomeline high dose.,False,1,13,1,1.0
CDISCPILOT01,AE,01-701-1275,11.0,E04,NAUSEA,NAUSEA,,NAUSEA,,HLT_0742,,HLGT_0326,,GASTROINTESTINAL DISORDERS,,GASTROINTESTINAL DISORDERS,,MILD,N,,POSSIBLE,RECOVERED/RESOLVED,N,N,N,N,N,N,N,2014-06-14,2014-02-13,2014-06-03,7.0,117.0,61.0,M,AMERICAN INDIAN OR ALASKA NATIVE,Xan_Hi,Xanomeline High Dose,,TYLENOL; VITAMIN C,The subject experienced nausea. affecting the gastrointestinal disorders. Severity: mild. Relationship to study drug: possible. Outcome: recovered/resolved. Treatment arm: xanomeline high dose.,False,1,13,1,1.0
CDISCPILOT01,AE,01-701-1275,5.0,E08,PAROSMIA,STRANGE SMELL SENSATION,,PAROSMIA,,HLT_0258,,HLGT_0471,,NERVOUS SYSTEM DISORDERS,,NERVOUS SYSTEM DISORDERS,,MILD,N,,POSSIBLE,NOT RECOVERED/NOT RESOLVED,N,N,N,N,N,N,N,2014-03-07,2014-02-24,2014-06-03,18.0,117.0,61.0,M,AMERICAN INDIAN OR ALASKA NATIVE,Xan_Hi,Xanomeline High Dose,,TYLENOL; VITAMIN C,The subject experienced parosmia. affecting the nervous system disorders. Severity: mild. Relationship to study drug: possible. Outcome: not recovered/not resolved. Treatment arm: xanomeline high dose.,False,1,13,2,0.36281456438751003
CDISCPILOT01,AE,01-701-1275,14.0,E08,PAROSMIA,STRANGE SMELL SENSATION,,PAROSMIA,,HLT_0258,,HLGT_0471,,NERVOUS SYSTEM DISORDERS,,NERVOUS SYSTEM DISORDERS,,MILD,N,,POSSIBLE,RECOVERED/RESOLVED,N,N,N,N,N,N,N,2014-06-14,2014-02-24,2014-06-03,18.0,117.0,61.0,M,AMERICAN INDIAN OR ALASKA NATIVE,Xan_Hi,Xanomeline High Dose,,TYLENOL; VITAMIN C,The subject experienced parosmia. affecting the nervous system disorders. Severity: mild. Relationship to study drug: possible. Outcome: recovered/resolved. Treatment arm: xanomeline high dose.,False,1,13,2,0.5709151953191304
CDISCPILOT01,AE,01-701-1275,6.0,E11,PRURITUS,ITCHING,,PRURITUS,,HLT_0778,,HLGT_0695,,SKIN AND SUBCUTANEOUS TISSUE DISORDERS,,SKIN AND SUBCUTANEOUS TISSUE DISORDERS,,MILD,N,,POSSIBLE,NOT RECOVERED/NOT RESOLVED,N,N,N,N,N,N,N,2014-03-07,2014-02-24,2014-06-12,18.0,126.0,61.0,M,AMERICAN INDIAN OR ALASKA NATIVE,Xan_Hi,Xanomeline High Dose,,TYLENOL; VITAMIN C,The subject experienced pruritus. affecting the skin and subcutaneous tissue disorders. Severity: mild. Relationship to study drug: possible. Outcome: not recovered/not resolved. Treatment arm: xanomeline high dose.,False,1,14,0,0.4048855770072319
CDISCPILOT01,AE,01-701-1275,15.0,E11,PRURITUS,ITCHING,,PRURITUS,,HLT_0778,,HLGT_0695,,SKIN AND SUBCUTANEOUS TISSUE DISORDERS,,SKIN AND SUBCUTANEOUS TISSUE DISORDERS,,MILD,N,,POSSIBLE,RECOVERED/RESOLVED,N,N,N,N,N,N,N,2014-06-14,2014-02-24,2014-06-12,18.0,126.0,61.0,M,AMERICAN INDIAN OR ALASKA NATIVE,Xan_Hi,Xanomeline High Dose,,TYLENOL; VITAMIN C,The subject experienced pruritus. affecting the skin and subcutaneous tissue disorders. Severity: mild. Relationship to study drug: possible. Outcome: recovered/resolved. Treatment arm: xanomeline high dose.,False,1,14,0,0.29613700645622626
CDISCPILOT01,AE,01-701-1275,4.0,E07,SALIVARY HYPERSECRETION,HYPERSALIVATION,,SALIVARY HYPERSECRETION,,HLT_0374,,HLGT_0488,,GASTROINTESTINAL DISORDERS,,GASTROINTESTINAL DISORDERS,,MILD,N,,POSSIBLE,NOT RECOVERED/NOT RESOLVED,N,N,N,N,N,N,N,2014-03-07,2014-02-24,2014-06-03,18.0,117.0,61.0,M,AMERICAN INDIAN OR ALASKA NATIVE,Xan_Hi,Xanomeline High Dose,,TYLENOL; VITAMIN C,The subject experienced salivary hypersecretion. affecting the gastrointestinal disorders. Severity: mild. Relationship to study drug: possible. Outcome: not recovered/not resolved. Treatment arm: xanomeline high dose.,False,1,13,-1,0.0
CDISCPILOT01,AE,01-701-1275,13.0,E07,SALIVARY HYPERSECRETION,HYPERSALIVATION,,SALIVARY HYPERSECRETION,,HLT_0374,,HLGT_0488,,GASTROINTESTINAL DISORDERS,,GASTROINTESTINAL DISORDERS,,MILD,N,,POSSIBLE,RECOVERED/RESOLVED,N,N,N,N,N,N,N,2014-06-14,2014-02-24,2014-06-03,18.0,117.0,61.0,M,AMERICAN INDIAN OR ALASKA NATIVE,Xan_Hi,Xanomeline High Dose,,TYLENOL; VITAMIN C,The subject experienced salivary hypersecretion. affecting the gastrointestinal disorders. Severity: mild. Relationship to study drug: possible. Outcome: recovered/resolved. Treatment arm: xanomeline high dose.,False,1,13,-1,0.0
CDISCPILOT01,AE,01-701-1275,2.0,E05,VOMITING,VOMITING,,VOMITING,,HLT_0016,,HLGT_0350,,GASTROINTESTINAL DISORDERS,,GASTROINTESTINAL DISORDERS,,MILD,N,,POSSIBLE,RECOVERED/RESOLVED,N,N,N,N,N,N,N,2014-03-07,2014-02-23,2014-02-23,17.0,17.0,61.0,M,AMERICAN INDIAN OR ALASKA NATIVE,Xan_Hi,Xanomeline High Dose,,TYLENOL; VITAMIN C,The subject experienced vomiting. affecting the gastrointestinal disorders. Severity: mild. Relationship to study drug: possible. Outcome: recovered/resolved. Treatment arm: xanomeline high dose.,False,1,13,1,0.1853976280424567
CDISCPILOT01,AE,01-701-1287,3.0,E04,APPLICATION SITE ERYTHEMA,APPLICATION SITE REDNESS,,APPLICATION SITE ERYTHEMA,,HLT_0617,,HLGT_0152,,GENERAL DISORDERS AND ADMINISTRATION SITE CONDITIONS,,GENERAL DISORDERS AND ADMINISTRATION SITE CONDITIONS,,MILD,N,,PROBABLE,NOT RECOVERED/NOT RESOLVED,N,N,N,N,N,N,N,2014-03-21,2014-03-09,,44.0,,56.0,F,WHITE,Xan_Hi,Xanomeline High Dose,,ALOE VERA; HYDROCORTISONE; MULTIVITAMIN; PREMARIN,The subject experienced application site erythema. affecting the general disorders and administration site conditions. Severity: mild. Relationship to study drug: probable. Outcome: not recovered/not resolved. Treatment arm: xanomeline high dose.,False,1,15,9,0.14575525743809867
CDISCPILOT01,AE,01-701-1287,2.0,E03,APPLICATION SITE PRURITUS,APPLICATION SITE ITCHING,,APPLICATION SITE PRURITUS,,HLT_0317,,HLGT_0338,,GENERAL DISORDERS AND ADMINISTRATION SITE CONDITIONS,,GENERAL DISORDERS AND ADMINISTRATION SITE CONDITIONS,,MILD,N,,POSSIBLE,NOT RECOVERED/NOT RESOLVED,N,N,N,N,N,N,N,2014-03-06,2014-02-22,,29.0,,56.0,F,WHITE,Xan_Hi,Xanomeline High Dose,,ALOE VERA; HYDROCORTISONE; MULTIVITAMIN; PREMARIN,The subject experienced application site pruritus. affecting the general disorders and administration site conditions. Severity: mild. Relationship to study drug: possible. Outcome: not recovered/not resolved. Treatment arm: xanomeline high dose.,False,1,15,-1,0.0
CDISCPILOT01,AE,01-701-1287,4.0,E05,RHINORRHOEA,RUNNY NOSE,,RHINORRHOEA,,HLT_0635,,HLGT_0460,,"RESPIRATORY, THORACIC AND MEDIASTINAL DISORDERS",,"RESPIRATORY, THORACIC AND MEDIASTINAL DISORDERS",,MILD,N,,NONE,NOT RECOVERED/NOT RESOLVED,N,N,N,N,N,N,N,2014-07-12,2014-07-09,2014-07-12,166.0,169.0,56.0,F,WHITE,Xan_Hi,Xanomeline High Dose,,ALOE VERA; HYDROCORTISONE; MULTIVITAMIN; PREMARIN,"The subject experienced rhinorrhoea. affecting the respiratory, thoracic and mediastinal disorders. Severity: mild. Relationship to study drug: none. Outcome: not recovered/not resolved. Treatment arm: xanomeline high dose.",False,1,15,41,1.0
CDISCPILOT01,AE,01-701-1287,5.0,E05,RHINORRHOEA,RUNNY NOSE,,RHINORRHOEA,,HLT_0635,,HLGT_0460,,"RESPIRATORY, THORACIC AND MEDIASTINAL DISORDERS",,"RESPIRATORY, THORACIC AND MEDIASTINAL DISORDERS",,MILD,N,,NONE,RECOVERED/RESOLVED,N,N,N,N,N,N,N,2014-07-26,2014-07-09,2014-07-12,166.0,169.0,56.0,F,WHITE,Xan_Hi,Xanomeline High Dose,,ALOE VERA; HYDROCORTISONE; MULTIVITAMIN; PREMARIN,"The subject experienced rhinorrhoea. affecting the respiratory, thoracic and mediastinal disorders. Severity: mild. Relationship to study drug: none. Outcome: recovered/resolved. Treatment arm: xanomeline high dose.",False,1,15,41,1.0
CDISCPILOT01,AE,01-701-1287,1.0,E02,SALIVARY HYPERSECRETION,INCREASED SALIVATION,,SALIVARY HYPERSECRETION,,HLT_0374,,HLGT_0488,,GASTROINTESTINAL DISORDERS,,GASTROINTESTINAL DISORDERS,,MILD,N,,NONE,NOT RECOVERED/NOT RESOLVED,N,N,N,N,N,N,N,2014-02-11,2014-01-26,,2.0,,56.0,F,WHITE,Xan_Hi,Xanomeline High Dose,,ALOE VERA; HYDROCORTISONE; MULTIVITAMIN; PREMARIN,The subject experienced salivary hypersecretion. affecting the gastrointestinal disorders. Severity: mild. Relationship to study drug: none. Outcome: not recovered/not resolved. Treatment arm: xanomeline high dose.,False,1,13,-1,0.0
CDISCPILOT01,AE,01-701-1294,3.0,E08,APPLICATION SITE ERYTHEMA,APPLICATION SITE REDNESS,,APPLICATION SITE ERYTHEMA,,HLT_0617,,HLGT_0152,,GENERAL DISORDERS AND ADMINISTRATION SITE CONDITIONS,,GENERAL DISORDERS AND ADMINISTRATION SITE CONDITIONS,,MILD,N,,PROBABLE,NOT RECOVERED/NOT RESOLVED,N,N,N,N,N,N,N,2013-05-22,2013-05-19,,57.0,,67.0,M,WHITE,Xan_Lo,Xanomeline Low Dose,,HISMANAL; HYDROCORTISONE; MULTIVITAMIN; NASACORT,The subject experienced application site erythema. affecting the general disorders and administration site conditions. Severity: mild. Relationship to study drug: probable. Outcome: not recovered/not resolved. Treatment arm: xanomeline low dose.,False,1,15,9,0.7164455677618754
CDISCPILOT01,AE,01-701-1294,5.0,E08,APPLICATION SITE ERYTHEMA,APPLICATION SITE REDNESS,,APPLICATION SITE ERYTHEMA,,HLT_0617,,HLGT_0152,,GENERAL DISORDERS AND ADMINISTRATION SITE CONDITIONS,,GENERAL DISORDERS AND ADMINISTRATION SITE CONDITIONS,,MODERATE,N,,PROBABLE,NOT RECOVERED/NOT RESOLVED,N,N,N,N,N,N,N,2013-06-14,2013-05-19,,57.0,,67.0,M,WHITE,Xan_Lo,Xanomeline Low Dose,,HISMANAL; HYDROCORTISONE; MULTIVITAMIN; NASACORT,The subject experienced application site erythema. affecting the general disorders and administration site conditions. Severity: moderate. Relationship to study drug: probable. Outcome: not recovered/not resolved. Treatment arm: xanomeline low dose.,False,2,15,9,0.7124379182132503
CDISCPILOT01,AE,01-701-1294,1.0,E06,APPLICATION SITE PRURITUS,APPLICATION SITE ITCHING,,APPLICATION SITE PRURITUS,,HLT_0317,,HLGT_0338,,GENERAL DISORDERS AND ADMINISTRATION SITE CONDITIONS,,GENERAL DISORDERS AND ADMINISTRATION SITE CONDITIONS,,MODERATE,N,,NONE,RECOVERED/RESOLVED,N,N,N,N,N,N,N,2013-03-24,2013-03-22,2013-03-23,-2.0,-1.0,67.0,M,WHITE,Xan_Lo,Xanomeline Low Dose,,HISMANAL; HYDROCORTISONE; MULTIVITAMIN; NASACORT,The subject experienced application site pruritus. affecting the general disorders and administration site conditions. Severity: moderate. Relationship to study drug: none. Outcome: recovered/resolved. Treatment arm: xanomeline low dose.,False,2,15,5,0.09988260904958872
CDISCPILOT01,AE,01-701-1294,2.0,E07,APPLICATION SITE PRURITUS,APPLICATION SITE ITCHING,,APPLICATION SITE PRURITUS,,HLT_0317,,HLGT_0338,,GENERAL DISORDERS AND ADMINISTRATION SITE CONDITIONS,,GENERAL DISORDERS AND ADMINISTRATION SITE CONDITIONS,,MILD,N,,POSSIBLE,NOT RECOVERED/NOT RESOLVED,N,N,N,N,N,N,N,2013-05-22,2013-05-19,,57.0,,67.0,M,WHITE,Xan_Lo,Xanomeline Low Dose,,HISMANAL; HYDROCORTISONE; MULTIVITAMIN; NASACORT,The subject experienced application site pruritus. affecting the general disorders and administration site conditions. Severity: mild. Relationship to study drug: possible. Outcome: not recovered/not resolved. Treatment arm: xanomeline low dose.,False,1,15,5,1.0
CDISCPILOT01,AE,01-701-1294,4.0,E07,APPLICATION SITE PRURITUS,APPLICATION SITE ITCHING,,APPLICATION SITE PRURITUS,,HLT_0317,,HLGT_0338,,GENERAL DISORDERS AND ADMINISTRATION SITE CONDITIONS,,GENERAL DISORDERS AND ADMINISTRATION SITE CONDITIONS,,MODERATE,N,,POSSIBLE,NOT RECOVERED/NOT RESOLVED,N,N,N,N,N,N,N,2013-06-14,2013-05-19,,57.0,,67.0,M,WHITE,Xan_Lo,Xanomeline Low Dose,,HISMANAL; HYDROCORTISONE; MULTIVITAMIN; NASACORT,The subject experienced application site pruritus. affecting the general disorders and administration site conditions. Severity: moderate. Relationship to study drug: possible. Outcome: not recovered/not resolved. Treatment arm: xanomeline low dose.,False,2,15,5,1.0
CDISCPILOT01,AE,01-701-1294,6.0,E09,RASH ERYTHEMATOUS,ERYTHEMATOUS RASH,,RASH ERYTHEMATOUS,,HLT_0336,,HLGT_0701,,SKIN AND SUBCUTANEOUS TISSUE DISORDERS,,SKIN AND SUBCUTANEOUS TISSUE DISORDERS,,MODERATE,N,,PROBABLE,NOT RECOVERED/NOT RESOLVED,N,N,N,N,N,N,N,2013-06-14,2013-06-10,,79.0,,67.0,M,WHITE,Xan_Lo,Xanomeline Low Dose,,HISMANAL; HYDROCORTISONE; MULTIVITAMIN; NASACORT,The subject experienced rash erythematous. affecting the skin and subcutaneous tissue disorders. Severity: moderate. Relationship to study drug: probable. Outcome: not recovered/not resolved. Treatment arm: xanomeline low dose.,False,2,14,3,0.11843713166242818
CDISCPILOT01,AE,01-701-1302,16.0,E27,APPLICATION SITE ERYTHEMA,APPLICATION SITE REDNESS,,APPLICATION SITE ERYTHEMA,,HLT_0617,,HLGT_0152,,GENERAL DISORDERS AND ADMINISTRATION SITE CONDITIONS,,GENERAL DISORDERS AND ADMINISTRATION SITE CONDITIONS,,MILD,N,,PROBABLE,NOT RECOVERED/NOT RESOLVED,N,N,N,N,N,N,N,2013-10-22,2013-10-15,,48.0,,61.0,M,WHITE,Xan_Hi,Xanomeline High Dose,,ADVIL; EXCEDRIN; METAMUCIL; MULTIVITAMINS; NEO-SYNEPHRINE; PSEUDOEPHEDRINE HYDROCHLORIDE,The subject experienced application site erythema. affecting the general disorders and administration site conditions. Severity: mild. Relationship to study drug: probable. Outcome: not recovered/not resolved. Treatment arm: xanomeline high dose.,False,1,15,9,0.3135670078075966
CDISCPILOT01,AE,01-701-1302,1.0,E21,APPLICATION SITE PERSPIRATION,APPLICATION SITE PERSPIRATION,,APPLICATION SITE PERSPIRATION,,HLT_0283,,HLGT_0403,,GENERAL DISORDERS AND ADMINISTRATION SITE CONDITIONS,,GENERAL DISORDERS AND ADMINISTRATION SITE CONDITIONS,,MILD,N,,POSSIBLE,NOT RECOVERED/NOT RESOLVED,N,N,N,N,N,N,N,2013-09-15,2013-08-30,,2.0,,61.0,M,WHITE,Xan_Hi,Xanomeline High Dose,,ADVIL; EXCEDRIN; METAMUCIL; MULTIVITAMINS; NEO-SYNEPHRINE; PSEUDOEPHEDRINE HYDROCHLORIDE,The subject experienced application site perspiration. affecting the general disorders and administration site conditions. Severity: mild. Relationship to study drug: possible. Outcome: not recovered/not resolved. Treatment arm: xanomeline high dose.,False,1,15,8,0.20409200410513134
CDISCPILOT01,AE,01-701-1302,17.0,E28,APPLICATION SITE PRURITUS,APPLICATION SITE ITCHING,,APPLICATION SITE PRURITUS,,HLT_0317,,HLGT_0338,,GENERAL DISORDERS AND ADMINISTRATION SITE CONDITIONS,,GENERAL DISORDERS AND ADMINISTRATION SITE CONDITIONS,,MILD,N,,PROBABLE,NOT RECOVERED/NOT RESOLVED,N,N,N,N,N,N,N,2013-10-22,2013-10-15,,48.0,,61.0,M,WHITE,Xan_Hi,Xanomeline High Dose,,ADVIL; EXCEDRIN; METAMUCIL; MULTIVITAMINS; NEO-SYNEPHRINE; PSEUDOEPHEDRINE HYDROCHLORIDE,The subject experienced application site pruritus. affecting the general disorders and administration site conditions. Severity: mild. Relationship to study drug: probable. Outcome: not recovered/not resolved. Treatment arm: xanomeline high dose.,False,1,15,5,1.0
CDISCPILOT01,AE,01-701-1302,12.0,E19,CONTUSION,BRUISE,,CONTUSION,,HLT_0713,,HLGT_0381,,"INJURY, POISONING AND PROCEDURAL COMPLICATIONS",,"INJURY, POISONING AND PROCEDURAL COMPLICATIONS",,MILD,N,,REMOTE,NOT RECOVERED/NOT RESOLVED,N,N,N,N,N,N,N,2013-09-15,2013-09-05,2013-10-08,8.0,41.0,61.0,M,WHITE,Xan_Hi,Xanomeline High Dose,,ADVIL; EXCEDRIN; METAMUCIL; MULTIVITAMINS; NEO-SYNEPHRINE; PSEUDOEPHEDRINE HYDROCHLORIDE,"The subject experienced contusion. affecting the injury, poisoning and procedural complications. Severity: mild. Relationship to study drug: remote. Outcome: not recovered/not resolved. Treatment arm: xanomeline high dose.",False,1,16,39,1.0
CDISCPILOT01,AE,01-701-1302,15.0,E19,CONTUSION,BRUISE,,CONTUSION,,HLT_0713,,HLGT_0381,,"INJURY, POISONING AND PROCEDURAL COMPLICATIONS",,"INJURY, POISONING AND PROCEDURAL COMPLICATIONS",,MILD,N,,REMOTE,RECOVERED/RESOLVED,N,N,N,N,N,N,N,2013-10-22,2013-09-05,2013-10-08,8.0,41.0,61.0,M,WHITE,Xan_Hi,Xanomeline High Dose,,ADVIL; EXCEDRIN; METAMUCIL; MULTIVITAMINS; NEO-SYNEPHRINE; PSEUDOEPHEDRINE HYDROCHLORIDE,"The subject experienced contusion. affecting the injury, poisoning and procedural complications. Severity: mild. Relationship to study drug: remote. Outcome: recovered/resolved. Treatment arm: xanomeline high dose.",False,1,16,39,0.7801800226485561
CDISCPILOT01,AE,01-701-1302,9.0,E17,DIZZINESS,DIZZY,,DIZZINESS,,HLT_0619,,HLGT_0751,,NERVOUS SYSTEM DISORDERS,,NERVOUS SYSTEM DISORDERS,,MODERATE,N,,REMOTE,RECOVERED/RESOLVED,N,N,N,N,N,N,N,2013-09-15,2013-09-02,2013-09-03,5.0,6.0,61.0,M,WHITE,Xan_Hi,Xanomeline High Dose,,ADVIL; EXCEDRIN; METAMUCIL; MULTIVITAMINS; NEO-SYNEPHRINE; PSEUDOEPHEDRINE HYDROCHLORIDE,The subject experienced dizziness. affecting the nervous system disorders. Severity: moderate. Relationship to study drug: remote. Outcome: recovered/resolved. Treatment arm: xanomeline high dose.,False,2,14,2,1.0
CDISCPILOT01,AE,01-701-1302,11.0,E20,DIZZINESS,LIGHTHEADEDNESS,,DIZZINESS,,HLT_0619,,HLGT_0751,,NERVOUS SYSTEM DISORDERS,,NERVOUS SYSTEM DISORDERS,,MILD,N,,POSSIBLE,NOT RECOVERED/NOT RESOLVED,N,N,N,N,N,N,N,2013-09-15,2013-09-04,,7.0,,61.0,M,WHITE,Xan_Hi,Xanomeline High Dose,,ADVIL; EXCEDRIN; METAMUCIL; MULTIVITAMINS; NEO-SYNEPHRINE; PSEUDOEPHEDRINE HYDROCHLORIDE,The subject experienced dizziness. affecting the nervous system disorders. Severity: mild. Relationship to study drug: possible. Outcome: not recovered/not resolved. Treatment arm: xanomeline high dose.,False,1,13,2,1.0
CDISCPILOT01,AE,01-701-1302,14.0,E25,EPISTAXIS,NOSE BLEED,,EPISTAXIS,,HLT_0386,,HLGT_0577,,"RESPIRATORY, THORACIC AND MEDIASTINAL DISORDERS",,"RESPIRATORY, THORACIC AND MEDIASTINAL DISORDERS",,MILD,N,,REMOTE,NOT RECOVERED/NOT RESOLVED,N,N,N,N,N,N,N,2013-10-08,2013-09-30,,33.0,,61.0,M,WHITE,Xan_Hi,Xanomeline High Dose,,ADVIL; EXCEDRIN; METAMUCIL; MULTIVITAMINS; NEO-SYNEPHRINE; PSEUDOEPHEDRINE HYDROCHLORIDE,"The subject experienced epistaxis. affecting the respiratory, thoracic and mediastinal disorders. Severity: mild. Relationship to study drug: remote. Outcome: not recovered/not resolved. Treatment arm: xanomeline high dose.",False,1,16,41,1.0
CDISCPILOT01,AE,01-701-1302,21.0,E31,FEELING ABNORMAL,FOGGY FEELING IN HEAD,,FEELING ABNORMAL,,HLT_0524,,HLGT_0749,,GENERAL DISORDERS AND ADMINISTRATION SITE CONDITIONS,,GENERAL DISORDERS AND ADMINISTRATION SITE CONDITIONS,,MILD,N,,POSSIBLE,NOT RECOVERED/NOT RESOLVED,N,N,N,N,N,N,N,2013-11-05,2013-10-24,,57.0,,61.0,M,WHITE,Xan_Hi,Xanomeline High Dose,,ADVIL; EXCEDRIN; METAMUCIL; MULTIVITAMINS; NEO-SYNEPHRINE; PSEUDOEPHEDRINE HYDROCHLORIDE,The subject experienced feeling abnormal. affecting the general disorders and administration site conditions. Severity: mild. Relationship to study drug: possible. Outcome: not recovered/not resolved. Treatment arm: xanomeline high dose.,False,1,14,29,1.0
CDISCPILOT01,AE,01-701-1302,13.0,E23,HEADACHE,HEADACHE,,HEADACHE,,HLT_0064,,HLGT_0344,,NERVOUS SYSTEM DISORDERS,,NERVOUS SYSTEM DISORDERS,,MILD,N,,NONE,NOT RECOVERED/NOT RESOLVED,N,N,N,N,N,N,N,2013-09-15,2013-09-15,,18.0,,61.0,M,WHITE,Xan_Hi,Xanomeline High Dose,,ADVIL; EXCEDRIN; METAMUCIL; MULTIVITAMINS; NEO-SYNEPHRINE; PSEUDOEPHEDRINE HYDROCHLORIDE,The subject experienced headache. affecting the nervous system disorders. Severity: mild. Relationship to study drug: none. Outcome: not recovered/not resolved. Treatment arm: xanomeline high dose.,False,1,13,2,1.0
CDISCPILOT01,AE,01-701-1302,2.0,E24,HYPERHIDROSIS,PERSPIRATION EXCESSIVE,,HYPERHIDROSIS,,HLT_0587,,HLGT_0005,,SKIN AND SUBCUTANEOUS TISSUE DISORDERS,,SKIN AND SUBCUTANEOUS TISSUE DISORDERS,,MILD,N,,POSSIBLE,NOT RECOVERED/NOT RESOLVED,N,N,N,N,N,N,N,2013-09-15,2013-08-30,,2.0,,61.0,M,WHITE,Xan_Hi,Xanomeline High Dose,,ADVIL; EXCEDRIN; METAMUCIL; MULTIVITAMINS; NEO-SYNEPHRINE; PSEUDOEPHEDRINE HYDROCHLORIDE,The subject experienced hyperhidrosis. affecting the skin and subcutaneous tissue disorders. Severity: mild. Relationship to study drug: possible. Outcome: not recovered/not resolved. Treatment arm: xanomeline high dose.,False,1,14,25,1.0
CDISCPILOT01,AE,01-701-1302,23.0,E33,LIBIDO DECREASED,LIBIDO DECREASED,,LIBIDO DECREASED,,HLT_0338,,HLGT_0496,,PSYCHIATRIC DISORDERS,,PSYCHIATRIC DISORDERS,,MILD,N,,POSSIBLE,NOT RECOVERED/NOT RESOLVED,N,N,N,N,N,N,N,2013-11-05,2013-10-24,,57.0,,61.0,M,WHITE,Xan_Hi,Xanomeline High Dose,,ADVIL; EXCEDRIN; METAMUCIL; MULTIVITAMINS; NEO-SYNEPHRINE; PSEUDOEPHEDRINE HYDROCHLORIDE,The subject experienced libido decreased. affecting the psychiatric disorders. Severity: mild. Relationship to study drug: possible. Outcome: not recovered/not resolved. Treatment arm: xanomeline high dose.,False,1,14,11,1.0
CDISCPILOT01,AE,01-701-1302,22.0,E32,LISTLESS,LISTLESSNESS,,LISTLESS,,HLT_0657,,HLGT_0124,,PSYCHIATRIC DISORDERS,,PSYCHIATRIC DISORDERS,,MILD,N,,POSSIBLE,NOT RECOVERED/NOT RESOLVED,N,N,N,N,N,N,N,2013-11-05,2013-10-24,,57.0,,61.0,M,WHITE,Xan_Hi,Xanomeline High Dose,,ADVIL; EXCEDRIN; METAMUCIL; MULTIVITAMINS; NEO-SYNEPHRINE; PSEUDOEPHEDRINE HYDROCHLORIDE,The subject experienced listless. affecting the psychiatric disorders. Severity: mild. Relationship to study drug: possible. Outcome: not recovered/not resolved. Treatment arm: xanomeline high dose.,False,1,13,11,1.0
CDISCPILOT01,AE,01-701-1302,8.0,E16,MALAISE,MALAISE,,MALAISE,,HLT_0456,,HLGT_0178,,GENERAL DISORDERS AND ADMINISTRATION SITE CONDITIONS,,GENERAL DISORDERS AND ADMINISTRATION SITE CONDITIONS,,MILD,N,,REMOTE,NOT RECOVERED/NOT RESOLVED,N,N,N,N,N,N,N,2013-09-15,2013-09-02,,5.0,,61.0,M,WHITE,Xan_Hi,Xanomeline High Dose,,ADVIL; EXCEDRIN; METAMUCIL; MULTIVITAMINS; NEO-SYNEPHRINE; PSEUDOEPHEDRINE HYDROCHLORIDE,The subject experienced malaise. affecting the general disorders and administration site conditions. Severity: mild. Relationship to study drug: remote. Outcome: not recovered/not resolved. Treatment arm: xanomeline high dose.,False,1,15,29,1.0
CDISCPILOT01,AE,01-701-1302,18.0,E16,MALAISE,MALAISE,,MALAISE,,HLT_0456,,HLGT_0178,,GENERAL DISORDERS AND ADMINISTRATION SITE CONDITIONS,,GENERAL DISORDERS AND ADMINISTRATION SITE CONDITIONS,,MODERATE,N,,REMOTE,NOT RECOVERED/NOT RESOLVED,N,N,N,N,N,N,N,2013-11-05,2013-09-02,,5.0,,61.0,M,WHITE,Xan_Hi,Xanomeline High Dose,,ADVIL; EXCEDRIN; METAMUCIL; MULTIVITAMINS; NEO-SYNEPHRINE; PSEUDOEPHEDRINE HYDROCHLORIDE,The subject experienced malaise. affecting the general disorders and administration site conditions. Severity: moderate. Relationship to study drug: remote. Outcome: not recovered/not resolved. Treatment arm: xanomeline high dose.,False,2,15,29,1.0
CDISCPILOT01,AE,01-701-1302,10.0,E18,MYALGIA,MYALGIA,,MYALGIA,,HLT_0700,,HLGT_0121,,MUSCULOSKELETAL AND CONNECTIVE TISSUE DISORDERS,,MUSCULOSKELETAL AND CONNECTIVE TISSUE DISORDERS,,MILD,N,,POSSIBLE,NOT RECOVERED/NOT RESOLVED,N,N,N,N,N,N,N,2013-09-15,2013-09-02,,5.0,,61.0,M,WHITE,Xan_Hi,Xanomeline High Dose,,ADVIL; EXCEDRIN; METAMUCIL; MULTIVITAMINS; NEO-SYNEPHRINE; PSEUDOEPHEDRINE HYDROCHLORIDE,The subject experienced myalgia. affecting the musculoskeletal and connective tissue disorders. Severity: mild. Relationship to study drug: possible. Outcome: not recovered/not resolved. Treatment arm: xanomeline high dose.,False,1,14,38,1.0
CDISCPILOT01,AE,01-701-1302,5.0,E13,NASAL CONGESTION,NASAL CONGESTION,,NASAL CONGESTION,,HLT_0118,,HLGT_0549,,"RESPIRATORY, THORACIC AND MEDIASTINAL DISORDERS",,"RESPIRATORY, THORACIC AND MEDIASTINAL DISORDERS",,MILD,N,,NONE,NOT RECOVERED/NOT RESOLVED,N,N,N,N,N,N,N,2013-09-15,2013-09-01,,4.0,,61.0,M,WHITE,Xan_Hi,Xanomeline High Dose,,ADVIL; EXCEDRIN; METAMUCIL; MULTIVITAMINS; NEO-SYNEPHRINE; PSEUDOEPHEDRINE HYDROCHLORIDE,"The subject experienced nasal congestion. affecting the respiratory, thoracic and mediastinal disorders. Severity: mild. Relationship to study drug: none. Outcome: not recovered/not resolved. Treatment arm: xanomeline high dose.",False,1,15,6,1.0
CDISCPILOT01,AE,01-701-1302,4.0,E22,PAIN,STINGING,,PAIN,,HLT_0314,,HLGT_0478,,GENERAL DISORDERS AND ADMINISTRATION SITE CONDITIONS,,GENERAL DISORDERS AND ADMINISTRATION SITE CONDITIONS,,MILD,N,,POSSIBLE,NOT RECOVERED/NOT RESOLVED,N,N,N,N,N,N,N,2013-09-15,2013-08-31,,3.0,,61.0,M,WHITE,Xan_Hi,Xanomeline High Dose,,ADVIL; EXCEDRIN; METAMUCIL; MULTIVITAMINS; NEO-SYNEPHRINE; PSEUDOEPHEDRINE HYDROCHLORIDE,The subject experienced pain. affecting the general disorders and administration site conditions. Severity: mild. Relationship to study drug: possible. Outcome: not recovered/not resolved. Treatment arm: xanomeline high dose.,False,1,14,28,1.0
CDISCPILOT01,AE,01-701-1302,6.0,E14,PHARYNGOLARYNGEAL PAIN,SORE THROAT,,PHARYNGOLARYNGEAL PAIN,,HLT_0130,,HLGT_0402,,"RESPIRATORY, THORACIC AND MEDIASTINAL DISORDERS",,"RESPIRATORY, THORACIC AND MEDIASTINAL DISORDERS",,MILD,N,,NONE,NOT RECOVERED/NOT RESOLVED,N,N,N,N,N,N,N,2013-09-15,2013-09-02,,5.0,,61.0,M,WHITE,Xan_Hi,Xanomeline High Dose,,ADVIL; EXCEDRIN; METAMUCIL; MULTIVITAMINS; NEO-SYNEPHRINE; PSEUDOEPHEDRINE HYDROCHLORIDE,"The subject experienced pharyngolaryngeal pain. affecting the respiratory, thoracic and mediastinal disorders. Severity: mild. Relationship to study drug: none. Outcome: not recovered/not resolved. Treatment arm: xanomeline high dose.",False,1,15,6,0.9085609266489406
CDISCPILOT01,AE,01-701-1302,7.0,E15,PRODUCTIVE COUGH,PRODUCTIVE COUGH,,PRODUCTIVE COUGH,,HLT_0545,,HLGT_0681,,"RESPIRATORY, THORACIC AND MEDIASTINAL DISORDERS",,"RESPIRATORY, THORACIC AND MEDIASTINAL DISORDERS",,MILD,N,,NONE,NOT RECOVERED/NOT RESOLVED,N,N,N,N,N,N,N,2013-09-15,2013-09-02,,5.0,,61.0,M,WHITE,Xan_Hi,Xanomeline High Dose,,ADVIL; EXCEDRIN; METAMUCIL; MULTIVITAMINS; NEO-SYNEPHRINE; PSEUDOEPHEDRINE HYDROCHLORIDE,"The subject experienced productive cough. affecting the respiratory, thoracic and mediastinal disorders. Severity: mild. Relationship to study drug: none. Outcome: not recovered/not resolved. Treatment arm: xanomeline high dose.",False,1,15,6,0.9579703113982848
CDISCPILOT01,AE,01-701-1302,19.0,E29,RESPIRATORY TRACT CONGESTION,RESPIRATORY TRACT CONGESTION,,RESPIRATORY TRACT CONGESTION,,HLT_0330,,HLGT_0424,,"RESPIRATORY, THORACIC AND MEDIASTINAL DISORDERS",,"RESPIRATORY, THORACIC AND MEDIASTINAL DISORDERS",,MILD,N,,NONE,NOT RECOVERED/NOT RESOLVED,N,N,N,N,N,N,N,2013-11-05,2013-10-23,,56.0,,61.0,M,WHITE,Xan_Hi,Xanomeline High Dose,,ADVIL; EXCEDRIN; METAMUCIL; MULTIVITAMINS; NEO-SYNEPHRINE; PSEUDOEPHEDRINE HYDROCHLORIDE,"The subject experienced respiratory tract congestion. affecting the respiratory, thoracic and mediastinal disorders. Severity: mild. Relationship to study drug: none. Outcome: not recovered/not resolved. Treatment arm: xanomeline high dose.",False,1,15,6,1.0
CDISCPILOT01,AE,01-701-1302,20.0,E30,RHINITIS,CORYZA,,RHINITIS,,HLT_0239,,HLGT_0322,,INFECTIONS AND INFESTATIONS,,INFECTIONS AND INFESTATIONS,,MILD,N,,NONE,NOT RECOVERED/NOT RESOLVED,N,N,N,N,N,N,N,2013-11-05,2013-10-23,,56.0,,61.0,M,WHITE,Xan_Hi,Xanomeline High Dose,,ADVIL; EXCEDRIN; METAMUCIL; MULTIVITAMINS; NEO-SYNEPHRINE; PSEUDOEPHEDRINE HYDROCHLORIDE,The subject experienced rhinitis. affecting the infections and infestations. Severity: mild. Relationship to study drug: none. Outcome: not recovered/not resolved. Treatment arm: xanomeline high dose.,False,1,14,6,1.0
CDISCPILOT01,AE,01-701-1302,3.0,E26,STOMACH DISCOMFORT,STOMACH UPSET,,STOMACH DISCOMFORT,,HLT_0065,,HLGT_0183,,GASTROINTESTINAL DISORDERS,,GASTROINTESTINAL DISORDERS,,MILD,N,,POSSIBLE,NOT RECOVERED/NOT RESOLVED,N,N,N,N,N,N,N,2013-09-15,2013-08-30,,2.0,,61.0,M,WHITE,Xan_Hi,Xanomeline High Dose,,ADVIL; EXCEDRIN; METAMUCIL; MULTIVITAMINS; NEO-SYNEPHRINE; PSEUDOEPHEDRINE HYDROCHLORIDE,The subject experienced stomach discomfort. affecting the gastrointestinal disorders. Severity: mild. Relationship to study drug: possible. Outcome: not recovered/not resolved. Treatment arm: xanomeline high dose.,False,1,13,1,1.0
CDISCPILOT01,AE,01-701-1317,3.0,E13,APPLICATION SITE ERYTHEMA,APPLICATION SITE REDNESS,,APPLICATION SITE ERYTHEMA,,HLT_0617,,HLGT_0152,,GENERAL DISORDERS AND ADMINISTRATION SITE CONDITIONS,,GENERAL DISORDERS AND ADMINISTRATION SITE CONDITIONS,,MILD,N,,POSSIBLE,NOT RECOVERED/NOT RESOLVED,N,N,N,N,N,N,N,2014-07-03,2014-06-23,,33.0,,68.0,M,WHITE,Xan_Lo,Xanomeline Low Dose,,ASPIRIN; FOLIC ACID; HYDROCORTISONE; MULTIVITAMIN; PSYLLIUM HYDROPHILIC MUCILLOID; TUMS; VITAMIN E,The subject experienced application site erythema. affecting the general disorders and administration site conditions. Severity: mild. Relationship to study drug: possible. Outcome: not recovered/not resolved. Treatment arm: xanomeline low dose.,False,1,15,9,0.1867962695538682
CDISCPILOT01,AE,01-701-1317,4.0,E14,APPLICATION SITE PRURITUS,APPLICATION SITE ITCHING,,APPLICATION SITE PRURITUS,,HLT_0317,,HLGT_0338,,GENERAL DISORDERS AND ADMINISTRATION SITE CONDITIONS,,GENERAL DISORDERS AND ADMINISTRATION SITE CONDITIONS,,MILD,N,,POSSIBLE,NOT RECOVERED/NOT RESOLVED,N,N,N,N,N,N,N,2014-07-03,2014-06-23,,33.0,,68.0,M,WHITE,Xan_Lo,Xanomeline Low Dose,,ASPIRIN; FOLIC ACID; HYDROCORTISONE; MULTIVITAMIN; PSYLLIUM HYDROPHILIC MUCILLOID; TUMS; VITAMIN E,The subject experienced application site pruritus. affecting the general disorders and administration site conditions. Severity: mild. Relationship to study drug: possible. Outcome: not recovered/not resolved. Treatment arm: xanomeline low dose.,False,1,15,5,1.0
CDISCPILOT01,AE,01-701-1317,5.0,E15,APPLICATION SITE URTICARIA,APPLICATION SITE URTICARIA,,APPLICATION SITE URTICARIA,,HLT_0196,,HLGT_0233,,GENERAL DISORDERS AND ADMINISTRATION SITE CONDITIONS,,GENERAL DISORDERS AND ADMINISTRATION SITE CONDITIONS,,MILD,N,,POSSIBLE,NOT RECOVERED/NOT RESOLVED,N,N,N,N,N,N,N,2014-07-03,2014-06-23,,33.0,,68.0,M,WHITE,Xan_Lo,Xanomeline Low Dose,,ASPIRIN; FOLIC ACID; HYDROCORTISONE; MULTIVITAMIN; PSYLLIUM HYDROPHILIC MUCILLOID; TUMS; VITAMIN E,The subject experienced application site urticaria. affecting the general disorders and administration site conditions. Severity: mild. Relationship to study drug: possible. Outcome: not recovered/not resolved. Treatment arm: xanomeline low dose.,False,1,15,34,0.4954739324415556
CDISCPILOT01,AE,01-701-1317,2.0,E12,CYST,CYST,,CYST,,HLT_0763,,HLGT_0341,,GENERAL DISORDERS AND ADMINISTRATION SITE CONDITIONS,,GENERAL DISORDERS AND ADMINISTRATION SITE CONDITIONS,,MILD,N,,NONE,NOT RECOVERED/NOT RESOLVED,N,N,N,N,N,N,N,2014-05-20,2014-05-13,,-9.0,,68.0,M,WHITE,Xan_Lo,Xanomeline Low Dose,,ASPIRIN; FOLIC ACID; HYDROCORTISONE; MULTIVITAMIN; PSYLLIUM HYDROPHILIC MUCILLOID; TUMS; VITAMIN E,The subject experienced cyst. affecting the general disorders and administration site conditions. Severity: mild. Relationship to study drug: none. Outcome: not recovered/not resolved. Treatment arm: xanomeline low dose.,False,1,14,40,0.4966034691169721
CDISCPILOT01,AE,01-701-1317,6.0,E16,DEPRESSED MOOD,DEPRESSED MOOD,,DEPRESSED MOOD,,HLT_0784,,HLGT_0122,,PSYCHIATRIC DISORDERS,,PSYCHIATRIC DISORDERS,,MILD,N,,POSSIBLE,NOT RECOVERED/NOT RESOLVED,N,N,N,N,N,N,N,2014-07-22,2014-07-04,,44.0,,68.0,M,WHITE,Xan_Lo,Xanomeline Low Dose,,ASPIRIN; FOLIC ACID; HYDROCORTISONE; MULTIVITAMIN; PSYLLIUM HYDROPHILIC MUCILLOID; TUMS; VITAMIN E,The subject experienced depressed mood. affecting the psychiatric disorders. Severity: mild. Relationship to study drug: possible. Outcome: not recovered/not resolved. Treatment arm: xanomeline low dose.,False,1,13,11,1.0
CDISCPILOT01,AE,01-701-1317,7.0,E16,DEPRESSED MOOD,DEPRESSED MOOD,,DEPRESSED MOOD,,HLT_0784,,HLGT_0122,,PSYCHIATRIC DISORDERS,,PSYCHIATRIC DISORDERS,,MODERATE,N,,POSSIBLE,NOT RECOVERED/NOT RESOLVED,N,N,N,N,N,N,N,2014-10-09,2014-07-04,,44.0,,68.0,M,WHITE,Xan_Lo,Xanomeline Low Dose,,ASPIRIN; FOLIC ACID; HYDROCORTISONE; MULTIVITAMIN; PSYLLIUM HYDROPHILIC MUCILLOID; TUMS; VITAMIN E,The subject experienced depressed mood. affecting the psychiatric disorders. Severity: moderate. Relationship to study drug: possible. Outcome: not recovered/not resolved. Treatment arm: xanomeline low dose.,False,2,13,11,1.0
CDISCPILOT01,AE,01-701-1317,9.0,E18,DYSPHONIA,HOARSENESS,,DYSPHONIA,,HLT_0073,,HLGT_0274,,"RESPIRATORY, THORACIC AND MEDIASTINAL DISORDERS",,"RESPIRATORY, THORACIC AND MEDIASTINAL DISORDERS",,MILD,N,,REMOTE,NOT RECOVERED/NOT RESOLVED,N,N,N,N,N,N,N,2014-11-06,2014-11-03,,166.0,,68.0,M,WHITE,Xan_Lo,Xanomeline Low Dose,,ASPIRIN; FOLIC ACID; HYDROCORTISONE; MULTIVITAMIN; PSYLLIUM HYDROPHILIC MUCILLOID; TUMS; VITAMIN E,"The subject experienced dysphonia. affecting the respiratory, thoracic and mediastinal disorders. Severity: mild. Relationship to study drug: remote. Outcome: not recovered/not resolved. Treatment arm: xanomeline low dose.",False,1,16,6,0.7689088337986142
CDISCPILOT01,AE,01-701-1317,8.0,E17,FATIGUE,TIREDNESS,,FATIGUE,,HLT_0043,,HLGT_0181,,GENERAL DISORDERS AND ADMINISTRATION SITE CONDITIONS,,GENERAL DISORDERS AND ADMINISTRATION SITE CONDITIONS,,MILD,N,,REMOTE,NOT RECOVERED/NOT RESOLVED,N,N,N,N,N,N,N,2014-10-09,2014-09-12,,114.0,,68.0,M,WHITE,Xan_Lo,Xanomeline Low Dose,,ASPIRIN; FOLIC ACID; HYDROCORTISONE; MULTIVITAMIN; PSYLLIUM HYDROPHILIC MUCILLOID; TUMS; VITAMIN E,The subject experienced fatigue. affecting the general disorders and administration site conditions. Severity: mild. Relationship to study drug: remote. Outcome: not recovered/not resolved. Treatment arm: xanomeline low dose.,False,1,15,23,0.9393892933034063
CDISCPILOT01,AE,01-701-1317,1.0,E11,ONYCHOMYCOSIS,ONYCHOMYCOSIS,,ONYCHOMYCOSIS,,HLT_0275,,HLGT_0243,,INFECTIONS AND INFESTATIONS,,INFECTIONS AND INFESTATIONS,,MILD,N,,NONE,NOT RECOVERED/NOT RESOLVED,N,N,N,N,N,N,N,2014-05-20,2014-05-13,,-9.0,,68.0,M,WHITE,Xan_Lo,Xanomeline Low Dose,,ASPIRIN; FOLIC ACID; HYDROCORTISONE; MULTIVITAMIN; PSYLLIUM HYDROPHILIC MUCILLOID; TUMS; VITAMIN E,The subject experienced onychomycosis. affecting the infections and infestations. Severity: mild. Relationship to study drug: none. Outcome: not recovered/not resolved. Treatment arm: xanomeline low dose.,False,1,14,13,0.45240749243659806
CDISCPILOT01,AE,01-701-1324,1.0,E04,APPLICATION SITE ERYTHEMA,APPLICATION SITE ERYTHEMA,,APPLICATION SITE ERYTHEMA,,HLT_0617,,HLGT_0152,,GENERAL DISORDERS AND ADMINISTRATION SITE CONDITIONS,,GENERAL DISORDERS AND ADMINISTRATION SITE CONDITIONS,,MILD,N,,PROBABLE,NOT RECOVERED/NOT RESOLVED,N,N,N,N,N,N,N,2012-10-30,2012-10-22,,21.0,,79.0,M,WHITE,Xan_Lo,Xanomeline Low Dose,,HYDROCORTISONE,The subject experienced application site erythema. affecting the general disorders and administration site conditions. Severity: mild. Relationship to study drug: probable. Outcome: not recovered/not resolved. Treatment arm: xanomeline low dose.,False,1,15,9,0.934911857059721
CDISCPILOT01,AE,01-701-1324,2.0,E06,APPLICATION SITE PRURITUS,APPLICATION SITE ITCHING,,APPLICATION SITE PRURITUS,,HLT_0317,,HLGT_0338,,GENERAL DISORDERS AND ADMINISTRATION SITE CONDITIONS,,GENERAL DISORDERS AND ADMINISTRATION SITE CONDITIONS,,MILD,N,,PROBABLE,NOT RECOVERED/NOT RESOLVED,N,N,N,N,N,N,N,2012-12-25,2012-12-02,,62.0,,79.0,M,WHITE,Xan_Lo,Xanomeline Low Dose,,HYDROCORTISONE,The subject experienced application site pruritus. affecting the general disorders and administration site conditions. Severity: mild. Relationship to study drug: probable. Outcome: not recovered/not resolved. Treatment arm: xanomeline low dose.,False,1,15,5,0.42298558834869854
CDISCPILOT01,AE,01-701-1324,3.0,E05,APPLICATION SITE VESICLES,APPLICATION SITE BLISTER,,APPLICATION SITE VESICLES,,HLT_0180,,HLGT_0576,,GENERAL DISORDERS AND ADMINISTRATION SITE CONDITIONS,,GENERAL DISORDERS AND ADMINISTRATION SITE CONDITIONS,,MILD,N,,PROBABLE,NOT RECOVERED/NOT RESOLVED,N,N,N,N,N,N,N,2012-12-25,2012-12-25,2013-01-16,85.0,107.0,79.0,M,WHITE,Xan_Lo,Xanomeline Low Dose,,HYDROCORTISONE,The subject experienced application site vesicles. affecting the general disorders and administration site conditions. Severity: mild. Relationship to study drug: probable. Outcome: not recovered/not resolved. Treatment arm: xanomeline low dose.,False,1,15,18,1.0
CDISCPILOT01,AE,01-701-1324,4.0,E05,APPLICATION SITE VESICLES,APPLICATION SITE BLISTER,,APPLICATION SITE VESICLES,,HLT_0180,,HLGT_0576,,GENERAL DISORDERS AND ADMINISTRATION SITE CONDITIONS,,GENERAL DISORDERS AND ADMINISTRATION SITE CONDITIONS,,MILD,N,,PROBABLE,RECOVERED/RESOLVED,N,N,N,N,N,N,N,2013-01-22,2012-12-25,2013-01-16,85.0,107.0,79.0,M,WHITE,Xan_Lo,Xanomeline Low Dose,,HYDROCORTISONE,The subject experienced application site vesicles. affecting the general disorders and administration site conditions. Severity: mild. Relationship to study drug: probable. Outcome: recovered/resolved. Treatment arm: xanomeline low dose.,False,1,15,18,1.0
CDISCPILOT01,AE,01-701-1341,2.0,E10,APPLICATION SITE ERYTHEMA,APPLICATION SITE REDNESS,,APPLICATION SITE ERYTHEMA,,HLT_0617,,HLGT_0152,,GENERAL DISORDERS AND ADMINISTRATION SITE CONDITIONS,,GENERAL DISORDERS AND ADMINISTRATION SITE CONDITIONS,,MODERATE,N,,PROBABLE,NOT RECOVERED/NOT RESOLVED,N,N,N,N,N,N,N,2013-02-07,2013-01-19,,15.0,,51.0,M,WHITE,Xan_Lo,Xanomeline Low Dose,,HYDROCORTISONE; MULTIVITAMIN,The subject experienced application site erythema. affecting the general disorders and administration site conditions. Severity: moderate. Relationship to study drug: probable. Outcome: not recovered/not resolved. Treatment arm: xanomeline low dose.,False,2,15,9,0.13686841275836883
CDISCPILOT01,AE,01-701-1341,4.0,E12,APPLICATION SITE ERYTHEMA,APPLICATION SITE REDNESS,,APPLICATION SITE ERYTHEMA,,HLT_0617,,HLGT_0152,,GENERAL DISORDERS AND ADMINISTRATION SITE CONDITIONS,,GENERAL DISORDERS AND ADMINISTRATION SITE CONDITIONS,,MODERATE,N,,PROBABLE,NOT RECOVERED/NOT RESOLVED,N,N,N,N,N,N,N,2013-02-07,2013-01-26,,22.0,,51.0,M,WHITE,Xan_Lo,Xanomeline Low Dose,,HYDROCORTISONE; MULTIVITAMIN,The subject experienced application site erythema. affecting the general disorders and administration site conditions. Severity: moderate. Relationship to study drug: probable. Outcome: not recovered/not resolved. Treatment arm: xanomeline low dose.,False,2,15,9,1.0
CDISCPILOT01,AE,01-701-1341,5.0,E13,APPLICATION SITE IRRITATION,APPLICATION SITE BURNING,,APPLICATION SITE IRRITATION,,HLT_0061,,HLGT_0346,,GENERAL DISORDERS AND ADMINISTRATION SITE CONDITIONS,,GENERAL DISORDERS AND ADMINISTRATION SITE CONDITIONS,,MODERATE,N,,PROBABLE,RECOVERED/RESOLVED,N,N,N,N,N,N,N,2013-02-07,2013-01-26,2013-01-30,22.0,26.0,51.0,M,WHITE,Xan_Lo,Xanomeline Low Dose,,HYDROCORTISONE; MULTIVITAMIN,The subject experienced application site irritation. affecting the general disorders and administration site conditions. Severity: moderate. Relationship to study drug: probable. Outcome: recovered/resolved. Treatment arm: xanomeline low dose.,False,2,15,8,1.0
CDISCPILOT01,AE,01-701-1341,1.0,E09,APPLICATION SITE PRURITUS,APPLICATION SITE ITCHING,,APPLICATION SITE PRURITUS,,HLT_0317,,HLGT_0338,,GENERAL DISORDERS AND ADMINISTRATION SITE CONDITIONS,,GENERAL DISORDERS AND ADMINISTRATION SITE CONDITIONS,,MODERATE,N,,PROBABLE,NOT RECOVERED/NOT RESOLVED,N,N,N,N,N,N,N,2013-02-07,2013-01-19,,15.0,,51.0,M,WHITE,Xan_Lo,Xanomeline Low Dose,,HYDROCORTISONE; MULTIVITAMIN,The subject experienced application site pruritus. affecting the general disorders and administration site conditions. Severity: moderate. Relationship to study drug: probable. Outcome: not recovered/not resolved. Treatment arm: xanomeline low dose.,False,2,15,5,1.0
CDISCPILOT01,AE,01-701-1341,3.0,E11,APPLICATION SITE PRURITUS,APPLICATION SITE ITCHING,,APPLICATION SITE PRURITUS,,HLT_0317,,HLGT_0338,,GENERAL DISORDERS AND ADMINISTRATION SITE CONDITIONS,,GENERAL DISORDERS AND ADMINISTRATION SITE CONDITIONS,,MODERATE,N,,PROBABLE,RECOVERED/RESOLVED,N,N,N,N,N,N,N,2013-02-07,2013-01-26,2013-01-30,22.0,26.0,51.0,M,WHITE,Xan_Lo,Xanomeline Low Dose,,HYDROCORTISONE; MULTIVITAMIN,The subject experienced application site pruritus. affecting the general disorders and administration site conditions. Severity: moderate. Relationship to study drug: probable. Outcome: recovered/resolved. Treatment arm: xanomeline low dose.,False,2,15,5,0.07689761799530358
CDISCPILOT01,AE,01-701-1360,1.0,E08,APPLICATION SITE ERYTHEMA,APPLICATION SITE ERYTHEMA,,APPLICATION SITE ERYTHEMA,,HLT_0617,,HLGT_0152,,GENERAL DISORDERS AND ADMINISTRATION SITE CONDITIONS,,GENERAL DISORDERS AND ADMINISTRATION SITE CONDITIONS,,MODERATE,N,,PROBABLE,NOT RECOVERED/NOT RESOLVED,N,N,N,N,N,N,N,2013-08-14,2013-08-02,,3.0,,67.0,M,WHITE,Xan_Hi,Xanomeline High Dose,,"DIPROLENE CREAM; GENERAL ANESTHESIA; HYDROCODONE; HYDROCORTISONE, TOPICAL; TYLENOL EXTRA STRENGTH",The subject experienced application site erythema. affecting the general disorders and administration site conditions. Severity: moderate. Relationship to study drug: probable. Outcome: not recovered/not resolved. Treatment arm: xanomeline high dose.,False,2,15,9,1.0
CDISCPILOT01,AE,01-701-1360,2.0,E09,APPLICATION SITE PRURITUS,APPLICATION SITE ITCHING,,APPLICATION SITE PRURITUS,,HLT_0317,,HLGT_0338,,GENERAL DISORDERS AND ADMINISTRATION SITE CONDITIONS,,GENERAL DISORDERS AND ADMINISTRATION SITE CONDITIONS,,MODERATE,N,,PROBABLE,NOT RECOVERED/NOT RESOLVED,N,N,N,N,N,N,N,2013-08-14,2013-08-02,,3.0,,67.0,M,WHITE,Xan_Hi,Xanomeline High Dose,,"DIPROLENE CREAM; GENERAL ANESTHESIA; HYDROCODONE; HYDROCORTISONE, TOPICAL; TYLENOL EXTRA STRENGTH",The subject experienced application site pruritus. affecting the general disorders and administration site conditions. Severity: moderate. Relationship to study drug: probable. Outcome: not recovered/not resolved. Treatment arm: xanomeline high dose.,False,2,15,5,1.0
CDISCPILOT01,AE,01-701-1360,3.0,E10,APPLICATION SITE VESICLES,APPLICATION SITE BLISTER,,APPLICATION SITE VESICLES,,HLT_0180,,HLGT_0576,,GENERAL DISORDERS AND ADMINISTRATION SITE CONDITIONS,,GENERAL DISORDERS AND ADMINISTRATION SITE CONDITIONS,,MODERATE,N,,PROBABLE,NOT RECOVERED/NOT RESOLVED,N,N,N,N,N,N,N,2013-08-14,2013-08-05,,6.0,,67.0,M,WHITE,Xan_Hi,Xanomeline High Dose,,"DIPROLENE CREAM; GENERAL ANESTHESIA; HYDROCODONE; HYDROCORTISONE, TOPICAL; TYLENOL EXTRA STRENGTH",The subject experienced application site vesicles. affecting the general disorders and administration site conditions. Severity: moderate. Relationship to study drug: probable. Outcome: not recovered/not resolved. Treatment arm: xanomeline high dose.,False,2,15,18,1.0
CDISCPILOT01,AE,01-701-1363,3.0,E11,APPLICATION SITE PRURITUS,APPLICATION SITE ITCHING,,APPLICATION SITE PRURITUS,,HLT_0317,,HLGT_0338,,GENERAL DISORDERS AND ADMINISTRATION SITE CONDITIONS,,GENERAL DISORDERS AND ADMINISTRATION SITE CONDITIONS,,MILD,N,,PROBABLE,NOT RECOVERED/NOT RESOLVED,N,N,N,N,N,N,N,2013-07-24,2013-07-16,,48.0,,81.0,F,BLACK OR AFRICAN AMERICAN,Pbo,Placebo,,ASA; HYDROCORTISONE; ICY HOT; MAALOX; MOTRIN; MULTIVITAMIN,The subject experienced application site pruritus. affecting the general disorders and administration site conditions. Severity: mild. Relationship to study drug: probable. Outcome: not recovered/not resolved. Treatment arm: placebo.,False,1,14,5,0.7343874090046634
CDISCPILOT01,AE,01-701-1363,5.0,E13,BACK PAIN,BACKACHE,,BACK PAIN,,HLT_0115,,HLGT_0508,,MUSCULOSKELETAL AND CONNECTIVE TISSUE DISORDERS,,MUSCULOSKELETAL AND CONNECTIVE TISSUE DISORDERS,,MILD,N,,NONE,NOT RECOVERED/NOT RESOLVED,N,N,N,N,N,N,N,2013-10-14,2013-10-13,2013-10-15,137.0,139.0,81.0,F,BLACK OR AFRICAN AMERICAN,Pbo,Placebo,,ASA; HYDROCORTISONE; ICY HOT; MAALOX; MOTRIN; MULTIVITAMIN,The subject experienced back pain. affecting the musculoskeletal and connective tissue disorders. Severity: mild. Relationship to study drug: none. Outcome: not recovered/not resolved. Treatment arm: placebo.,False,1,13,12,1.0
CDISCPILOT01,AE,01-701-1363,6.0,E13,BACK PAIN,BACKACHE,,BACK PAIN,,HLT_0115,,HLGT_0508,,MUSCULOSKELETAL AND CONNECTIVE TISSUE DISORDERS,,MUSCULOSKELETAL AND CONNECTIVE TISSUE DISORDERS,,MILD,N,,NONE,RECOVERED/RESOLVED,N,N,N,N,N,N,N,2013-11-13,2013-10-13,2013-10-15,137.0,139.0,81.0,F,BLACK OR AFRICAN AMERICAN,Pbo,Placebo,,ASA; HYDROCORTISONE; ICY HOT; MAALOX; MOTRIN; MULTIVITAMIN,The subject experienced back pain. affecting the musculoskeletal and connective tissue disorders. Severity: mild. Relationship to study drug: none. Outcome: recovered/resolved. Treatment arm: placebo.,False,1,13,12,1.0
CDISCPILOT01,AE,01-701-1363,2.0,E03,HEADACHE,HEADACHE,,HEADACHE,,HLT_0064,,HLGT_0344,,NERVOUS SYSTEM DISORDERS,,NERVOUS SYSTEM DISORDERS,,MODERATE,N,,POSSIBLE,NOT RECOVERED/NOT RESOLVED,N,N,N,N,N,N,N,2013-07-24,1986,,,,81.0,F,BLACK OR AFRICAN AMERICAN,Pbo,Placebo,,ASA; HYDROCORTISONE; ICY HOT; MAALOX; MOTRIN; MULTIVITAMIN,The subject experienced headache. affecting the nervous system disorders. Severity: moderate. Relationship to study drug: possible. Outcome: not recovered/not resolved. Treatment arm: placebo.,False,2,12,31,1.0
CDISCPILOT01,AE,01-701-1363,4.0,E03,HEADACHE,HEADACHE,,HEADACHE,,HLT_0064,,HLGT_0344,,NERVOUS SYSTEM DISORDERS,,NERVOUS SYSTEM DISORDERS,,MILD,N,,POSSIBLE,NOT RECOVERED/NOT RESOLVED,N,N,N,N,N,N,N,2013-10-14,1986,,,,81.0,F,BLACK OR AFRICAN AMERICAN,Pbo,Placebo,,ASA; HYDROCORTISONE; ICY HOT; MAALOX; MOTRIN; MULTIVITAMIN,The subject experienced headache. affecting the nervous system disorders. Severity: mild. Relationship to study drug: possible. Outcome: not recovered/not resolved. Treatment arm: placebo.,False,1,12,31,1.0
CDISCPILOT01,AE,01-701-1363,1.0,E09,NAUSEA,NAUSEA,,NAUSEA,,HLT_0742,,HLGT_0326,,GASTROINTESTINAL DISORDERS,,GASTROINTESTINAL DISORDERS,,MILD,N,,REMOTE,RECOVERED/RESOLVED,N,N,N,N,N,N,N,2013-06-25,2013-06-14,2013-06-15,16.0,17.0,81.0,F,BLACK OR AFRICAN AMERICAN,Pbo,Placebo,,ASA; HYDROCORTISONE; ICY HOT; MAALOX; MOTRIN; MULTIVITAMIN,The subject experienced nausea. affecting the gastrointestinal disorders. Severity: mild. Relationship to study drug: remote. Outcome: recovered/resolved. Treatment arm: placebo.,False,1,13,1,1.0
CDISCPILOT01,AE,01-701-1383,3.0,E06,APPLICATION SITE ERYTHEMA,APPLICATION SITE ERYTHEMA,,APPLICATION SITE ERYTHEMA,,HLT_0617,,HLGT_0152,,GENERAL DISORDERS AND ADMINISTRATION SITE CONDITIONS,,GENERAL DISORDERS AND ADMINISTRATION SITE CONDITIONS,,MILD,N,,POSSIBLE,RECOVERED/RESOLVED,N,N,N,N,N,N,N,2013-04-02,2013-03-23,2013-03-26,48.0,51.0,72.0,F,WHITE,Xan_Hi,Xanomeline High Dose,,CENTRUM SILVER; CEPHALEXIN; HYDROCORTISONE; PROMETHAZINE HCL W/CODEINE,The subject experienced application site erythema. affecting the general disorders and administration site conditions. Severity: mild. Relationship to study drug: possible. Outcome: recovered/resolved. Treatment arm: xanomeline high dose.,False,1,15,9,0.019391395322882612
CDISCPILOT01,AE,01-701-1383,5.0,E08,APPLICATION SITE ERYTHEMA,APPLICATION SITE ERYTHEMA,,APPLICATION SITE ERYTHEMA,,HLT_0617,,HLGT_0152,,GENERAL DISORDERS AND ADMINISTRATION SITE CONDITIONS,,GENERAL DISORDERS AND ADMINISTRATION SITE CONDITIONS,,MILD,N,,POSSIBLE,NOT RECOVERED/NOT RESOLVED,N,N,N,N,N,N,N,2013-04-30,2013-04-12,,68.0,,72.0,F,WHITE,Xan_Hi,Xanomeline High Dose,,CENTRUM SILVER; CEPHALEXIN; HYDROCORTISONE; PROMETHAZINE HCL W/CODEINE,The subject experienced application site erythema. affecting the general disorders and administration site conditions. Severity: mild. Relationship to study drug: possible. Outcome: not recovered/not resolved. Treatment arm: xanomeline high dose.,False,1,15,9,1.0
CDISCPILOT01,AE,01-701-1383,6.0,E09,APPLICATION SITE IRRITATION,APPLICATION SITE BURNING,,APPLICATION SITE IRRITATION,,HLT_0061,,HLGT_0346,,GENERAL DISORDERS AND ADMINISTRATION SITE CONDITIONS,,GENERAL DISORDERS AND ADMINISTRATION SITE CONDITIONS,,MILD,N,,POSSIBLE,NOT RECOVERED/NOT RESOLVED,N,N,N,N,N,N,N,2013-04-30,2013-04-12,,68.0,,72.0,F,WHITE,Xan_Hi,Xanomeline High Dose,,CENTRUM SILVER; CEPHALEXIN; HYDROCORTISONE; PROMETHAZINE HCL W/CODEINE,The subject experienced application site irritation. affecting the general disorders and administration site conditions. Severity: mild. Relationship to study drug: possible. Outcome: not recovered/not resolved. Treatment arm: xanomeline high dose.,False,1,15,8,0.46493349844134846
CDISCPILOT01,AE,01-701-1383,8.0,E09,APPLICATION SITE IRRITATION,APPLICATION SITE BURNING,,APPLICATION SITE IRRITATION,,HLT_0061,,HLGT_0346,,GENERAL DISORDERS AND ADMINISTRATION SITE CONDITIONS,,GENERAL DISORDERS AND ADMINISTRATION SITE CONDITIONS,,MODERATE,N,,POSSIBLE,NOT RECOVERED/NOT RESOLVED,N,N,N,N,N,N,N,2013-05-30,2013-04-12,,68.0,,72.0,F,WHITE,Xan_Hi,Xanomeline High Dose,,CENTRUM SILVER; CEPHALEXIN; HYDROCORTISONE; PROMETHAZINE HCL W/CODEINE,The subject experienced application site irritation. affecting the general disorders and administration site conditions. Severity: moderate. Relationship to study drug: possible. Outcome: not recovered/not resolved. Treatment arm: xanomeline high dose.,False,2,15,8,0.4273803621042769
CDISCPILOT01,AE,01-701-1383,2.0,E05,APPLICATION SITE PAIN,APPLICATION SITE PAIN,,APPLICATION SITE PAIN,,HLT_0342,,HLGT_0085,,GENERAL DISORDERS AND ADMINISTRATION SITE CONDITIONS,,GENERAL DISORDERS AND ADMINISTRATION SITE CONDITIONS,,MILD,N,,PROBABLE,RECOVERED/RESOLVED,N,N,N,N,N,N,N,2013-02-19,2013-02-07,2013-02-07,4.0,4.0,72.0,F,WHITE,Xan_Hi,Xanomeline High Dose,,CENTRUM SILVER; CEPHALEXIN; HYDROCORTISONE; PROMETHAZINE HCL W/CODEINE,The subject experienced application site pain. affecting the general disorders and administration site conditions. Severity: mild. Relationship to study drug: probable. Outcome: recovered/resolved. Treatment arm: xanomeline high dose.,False,1,14,28,0.9458994436648867
CDISCPILOT01,AE,01-701-1383,1.0,E04,APPLICATION SITE PRURITUS,APPLICATION SITE ITCHING,,APPLICATION SITE PRURITUS,,HLT_0317,,HLGT_0338,,GENERAL DISORDERS AND ADMINISTRATION SITE CONDITIONS,,GENERAL DISORDERS AND ADMINISTRATION SITE CONDITIONS,,MILD,N,,PROBABLE,RECOVERED/RESOLVED,N,N,N,N,N,N,N,2013-02-19,2013-02-07,2013-02-07,4.0,4.0,72.0,F,WHITE,Xan_Hi,Xanomeline High Dose,,CENTRUM SILVER; CEPHALEXIN; HYDROCORTISONE; PROMETHAZINE HCL W/CODEINE,The subject experienced application site pruritus. affecting the general disorders and administration site conditions. Severity: mild. Relationship to study drug: probable. Outcome: recovered/resolved. Treatment arm: xanomeline high dose.,False,1,15,5,1.0
CDISCPILOT01,AE,01-701-1383,4.0,E07,APPLICATION SITE PRURITUS,APPLICATION SITE ITCHING,,APPLICATION SITE PRURITUS,,HLT_0317,,HLGT_0338,,GENERAL DISORDERS AND ADMINISTRATION SITE CONDITIONS,,GENERAL DISORDERS AND ADMINISTRATION SITE CONDITIONS,,MILD,N,,POSSIBLE,NOT RECOVERED/NOT RESOLVED,N,N,N,N,N,N,N,2013-04-02,2013-03-23,,48.0,,72.0,F,WHITE,Xan_Hi,Xanomeline High Dose,,CENTRUM SILVER; CEPHALEXIN; HYDROCORTISONE; PROMETHAZINE HCL W/CODEINE,The subject experienced application site pruritus. affecting the general disorders and administration site conditions. Severity: mild. Relationship to study drug: possible. Outcome: not recovered/not resolved. Treatment arm: xanomeline high dose.,False,1,15,-1,0.0
CDISCPILOT01,AE,01-701-1383,7.0,E07,APPLICATION SITE PRURITUS,APPLICATION SITE ITCHING,,APPLICATION SITE PRURITUS,,HLT_0317,,HLGT_0338,,GENERAL DISORDERS AND ADMINISTRATION SITE CONDITIONS,,GENERAL DISORDERS AND ADMINISTRATION SITE CONDITIONS,,MODERATE,N,,POSSIBLE,NOT RECOVERED/NOT RESOLVED,N,N,N,N,N,N,N,2013-05-30,2013-03-23,,48.0,,72.0,F,WHITE,Xan_Hi,Xanomeline High Dose,,CENTRUM SILVER; CEPHALEXIN; HYDROCORTISONE; PROMETHAZINE HCL W/CODEINE,The subject experienced application site pruritus. affecting the general disorders and administration site conditions. Severity: moderate. Relationship to study drug: possible. Outcome: not recovered/not resolved. Treatment arm: xanomeline high dose.,False,2,15,-1,0.0
CDISCPILOT01,AE,01-701-1383,9.0,E10,APPLICATION SITE VESICLES,APPLICATION SITE BLISTER,,APPLICATION SITE VESICLES,,HLT_0180,,HLGT_0576,,GENERAL DISORDERS AND ADMINISTRATION SITE CONDITIONS,,GENERAL DISORDERS AND ADMINISTRATION SITE CONDITIONS,,MILD,N,,POSSIBLE,RECOVERED/RESOLVED,N,N,N,N,N,N,N,2013-05-30,2013-05-07,2013-05-24,93.0,110.0,72.0,F,WHITE,Xan_Hi,Xanomeline High Dose,,CENTRUM SILVER; CEPHALEXIN; HYDROCORTISONE; PROMETHAZINE HCL W/CODEINE,The subject experienced application site vesicles. affecting the general disorders and administration site conditions. Severity: mild. Relationship to study drug: possible. Outcome: recovered/resolved. Treatment arm: xanomeline high dose.,False,1,15,18,0.5857609149797762
CDISCPILOT01,AE,01-701-1383,10.0,E11,CHEST DISCOMFORT,CHEST PRESSURE,,CHEST DISCOMFORT,,HLT_0593,,HLGT_0441,,GENERAL DISORDERS AND ADMINISTRATION SITE CONDITIONS,,GENERAL DISORDERS AND ADMINISTRATION SITE CONDITIONS,,MILD,N,,NONE,RECOVERED/RESOLVED,N,N,N,N,N,N,N,2013-06-25,2013-06-24,2013-06-24,141.0,141.0,72.0,F,WHITE,Xan_Hi,Xanomeline High Dose,,CENTRUM SILVER; CEPHALEXIN; HYDROCORTISONE; PROMETHAZINE HCL W/CODEINE,The subject experienced chest discomfort. affecting the general disorders and administration site conditions. Severity: mild. Relationship to study drug: none. Outcome: recovered/resolved. Treatment arm: xanomeline high dose.,False,1,14,4,0.15527876586241013
CDISCPILOT01,AE,01-701-1383,12.0,E13,COUGH,COUGH,,COUGH,,HLT_0701,,HLGT_0280,,"RESPIRATORY, THORACIC AND MEDIASTINAL DISORDERS",,"RESPIRATORY, THORACIC AND MEDIASTINAL DISORDERS",,MODERATE,N,,NONE,RECOVERED/RESOLVED,N,N,N,N,N,N,N,2013-07-30,2013-07-17,2013-07-26,164.0,173.0,72.0,F,WHITE,Xan_Hi,Xanomeline High Dose,,CENTRUM SILVER; CEPHALEXIN; HYDROCORTISONE; PROMETHAZINE HCL W/CODEINE,"The subject experienced cough. affecting the respiratory, thoracic and mediastinal disorders. Severity: moderate. Relationship to study drug: none. Outcome: recovered/resolved. Treatment arm: xanomeline high dose.",False,2,15,6,1.0
CDISCPILOT01,AE,01-701-1383,11.0,E12,HEADACHE,FULLNESS HEAD,,HEADACHE,,HLT_0064,,HLGT_0344,,NERVOUS SYSTEM DISORDERS,,NERVOUS SYSTEM DISORDERS,,MILD,N,,NONE,RECOVERED/RESOLVED,N,N,N,N,N,N,N,2013-06-25,2013-06-24,2013-06-24,141.0,141.0,72.0,F,WHITE,Xan_Hi,Xanomeline High Dose,,CENTRUM SILVER; CEPHALEXIN; HYDROCORTISONE; PROMETHAZINE HCL W/CODEINE,The subject experienced headache. affecting the nervous system disorders. Severity: mild. Relationship to study drug: none. Outcome: recovered/resolved. Treatment arm: xanomeline high dose.,False,1,13,2,1.0
CDISCPILOT01,AE,01-701-1387,1.0,E08,DIARRHOEA,DIARRHEA,,DIARRHOEA,,HLT_0148,,HLGT_0588,,GASTROINTESTINAL DISORDERS,,GASTROINTESTINAL DISORDERS,,MILD,N,,REMOTE,RECOVERED/RESOLVED,N,N,N,N,N,N,N,2014-03-25,2014-03-18,2014-03-18,7.0,7.0,87.0,F,WHITE,Pbo,Placebo,,ECOTRIN,The subject experienced diarrhoea. affecting the gastrointestinal disorders. Severity: mild. Relationship to study drug: remote. Outcome: recovered/resolved. Treatment arm: placebo.,False,1,13,1,1.0
CDISCPILOT01,AE,01-701-1387,2.0,E09,HYPERHIDROSIS,SWEATING,,HYPERHIDROSIS,,HLT_0587,,HLGT_0005,,SKIN AND SUBCUTANEOUS TISSUE DISORDERS,,SKIN AND SUBCUTANEOUS TISSUE DISORDERS,,MILD,N,,REMOTE,RECOVERED/RESOLVED,N,N,N,N,N,N,N,2014-03-25,2014-03-18,2014-03-18,7.0,7.0,87.0,F,WHITE,Pbo,Placebo,,ECOTRIN,The subject experienced hyperhidrosis. affecting the skin and subcutaneous tissue disorders. Severity: mild. Relationship to study drug: remote. Outcome: recovered/resolved. Treatment arm: placebo.,False,1,14,25,0.051596142916409314
CDISCPILOT01,AE,01-701-1392,1.0,E04,UPPER RESPIRATORY TRACT INFECTION,UPPER RESPIRATORY INFECTION,,UPPER RESPIRATORY TRACT INFECTION,,HLT_0520,,HLGT_0489,,INFECTIONS AND INFESTATIONS,,INFECTIONS AND INFESTATIONS,,MILD,N,,REMOTE,NOT RECOVERED/NOT RESOLVED,N,N,N,N,N,N,N,2013-03-17,2013-03-16,2013-03-21,140.0,145.0,78.0,M,WHITE,Pbo,Placebo,,HYDROCHLOROTHIAZIDE; VITAMIN D; VITAMIN E; ZESTRIL,The subject experienced upper respiratory tract infection. affecting the infections and infestations. Severity: mild. Relationship to study drug: remote. Outcome: not recovered/not resolved. Treatment arm: placebo.,False,1,14,13,0.44017247840170104
CDISCPILOT01,AE,01-701-1392,2.0,E04,UPPER RESPIRATORY TRACT INFECTION,UPPER RESPIRATORY INFECTION,,UPPER RESPIRATORY TRACT INFECTION,,HLT_0520,,HLGT_0489,,INFECTIONS AND INFESTATIONS,,INFECTIONS AND INFESTATIONS,,MILD,N,,REMOTE,RECOVERED/RESOLVED,N,N,N,N,N,N,N,2013-04-15,2013-03-16,2013-03-21,140.0,145.0,78.0,M,WHITE,Pbo,Placebo,,HYDROCHLOROTHIAZIDE; VITAMIN D; VITAMIN E; ZESTRIL,The subject experienced upper respiratory tract infection. affecting the infections and infestations. Severity: mild. Relationship to study drug: remote. Outcome: recovered/resolved. Treatment arm: placebo.,False,1,14,13,0.4389088972883247
CDISCPILOT01,AE,01-701-1415,6.0,E12,DIARRHOEA,DIARRHEA,,DIARRHOEA,,HLT_0148,,HLGT_0588,,GASTROINTESTINAL DISORDERS,,GASTROINTESTINAL DISORDERS,,MILD,N,,NONE,RECOVERED/RESOLVED,N,N,N,N,N,N,N,2014-03-10,2014-03-09,2014-03-09,168.0,168.0,85.0,M,WHITE,Pbo,Placebo,,AMPICILLIN; CEFACLOR; MOTRIN; OCUVITE; PROMETHAZINE HCL W/CODEINE,The subject experienced diarrhoea. affecting the gastrointestinal disorders. Severity: mild. Relationship to study drug: none. Outcome: recovered/resolved. Treatment arm: placebo.,False,1,12,1,0.8742077565770494
CDISCPILOT01,AE,01-701-1415,3.0,E10,MICTURITION URGENCY,URINARY URGENCY,,MICTURITION URGENCY,,HLT_0294,,HLGT_0483,,RENAL AND URINARY DISORDERS,,RENAL AND URINARY DISORDERS,,MILD,N,,NONE,NOT RECOVERED/NOT RESOLVED,N,N,N,N,N,N,N,2013-12-21,2013-12-02,,71.0,,85.0,M,WHITE,Pbo,Placebo,,AMPICILLIN; CEFACLOR; MOTRIN; OCUVITE; PROMETHAZINE HCL W/CODEINE,The subject experienced micturition urgency. affecting the renal and urinary disorders. Severity: mild. Relationship to study drug: none. Outcome: not recovered/not resolved. Treatment arm: placebo.,False,1,13,14,0.604245985735948
CDISCPILOT01,AE,01-701-1415,1.0,E09,UPPER RESPIRATORY TRACT INFECTION,UPPER RESPIRATORY INFECTION,,UPPER RESPIRATORY TRACT INFECTION,,HLT_0520,,HLGT_0489,,INFECTIONS AND INFESTATIONS,,INFECTIONS AND INFESTATIONS,,MILD,N,,NONE,NOT RECOVERED/NOT RESOLVED,N,N,N,N,N,N,N,2013-10-22,2013-10-21,2013-11-04,29.0,43.0,85.0,M,WHITE,Pbo,Placebo,,AMPICILLIN; CEFACLOR; MOTRIN; OCUVITE; PROMETHAZINE HCL W/CODEINE,The subject experienced upper respiratory tract infection. affecting the infections and infestations. Severity: mild. Relationship to study drug: none. Outcome: not recovered/not resolved. Treatment arm: placebo.,False,1,13,6,1.0
CDISCPILOT01,AE,01-701-1415,2.0,E09,UPPER RESPIRATORY TRACT INFECTION,UPPER RESPIRATORY INFECTION,,UPPER RESPIRATORY TRACT INFECTION,,HLT_0520,,HLGT_0489,,INFECTIONS AND INFESTATIONS,,INFECTIONS AND INFESTATIONS,,MILD,N,,NONE,RECOVERED/RESOLVED,N,N,N,N,N,N,N,2013-11-21,2013-10-21,2013-11-04,29.0,43.0,85.0,M,WHITE,Pbo,Placebo,,AMPICILLIN; CEFACLOR; MOTRIN; OCUVITE; PROMETHAZINE HCL W/CODEINE,The subject experienced upper respiratory tract infection. affecting the infections and infestations. Severity: mild. Relationship to study drug: none. Outcome: recovered/resolved. Treatment arm: placebo.,False,1,13,6,1.0
CDISCPILOT01,AE,01-701-1415,4.0,E11,UPPER RESPIRATORY TRACT INFECTION,UPPER RESPIRATORY INFECTION,,UPPER RESPIRATORY TRACT INFECTION,,HLT_0520,,HLGT_0489,,INFECTIONS AND INFESTATIONS,,INFECTIONS AND INFESTATIONS,,MILD,N,,REMOTE,NOT RECOVERED/NOT RESOLVED,N,N,N,N,N,N,N,2014-02-10,2014-01-21,2014-02-10,121.0,141.0,85.0,M,WHITE,Pbo,Placebo,,AMPICILLIN; CEFACLOR; MOTRIN; OCUVITE; PROMETHAZINE HCL W/CODEINE,The subject experienced upper respiratory tract infection. affecting the infections and infestations. Severity: mild. Relationship to study drug: remote. Outcome: not recovered/not resolved. Treatment arm: placebo.,False,1,14,-1,0.0
CDISCPILOT01,AE,01-701-1415,5.0,E11,UPPER RESPIRATORY TRACT INFECTION,UPPER RESPIRATORY INFECTION,,UPPER RESPIRATORY TRACT INFECTION,,HLT_0520,,HLGT_0489,,INFECTIONS AND INFESTATIONS,,INFECTIONS AND INFESTATIONS,,MILD,N,,REMOTE,RECOVERED/RESOLVED,N,N,N,N,N,N,N,2014-03-10,2014-01-21,2014-02-10,121.0,141.0,85.0,M,WHITE,Pbo,Placebo,,AMPICILLIN; CEFACLOR; MOTRIN; OCUVITE; PROMETHAZINE HCL W/CODEINE,The subject experienced upper respiratory tract infection. affecting the infections and infestations. Severity: mild. Relationship to study drug: remote. Outcome: recovered/resolved. Treatment arm: placebo.,False,1,14,-1,0.0
CDISCPILOT01,AE,01-701-1442,1.0,E03,APPLICATION SITE PRURITUS,APPLICATION SITE ITCHING,,APPLICATION SITE PRURITUS,,HLT_0317,,HLGT_0338,,GENERAL DISORDERS AND ADMINISTRATION SITE CONDITIONS,,GENERAL DISORDERS AND ADMINISTRATION SITE CONDITIONS,,MILD,N,,PROBABLE,NOT RECOVERED/NOT RESOLVED,N,N,N,N,N,N,N,2014-01-18,2014-01-10,,77.0,,57.0,F,BLACK OR AFRICAN AMERICAN,Xan_Lo,Xanomeline Low Dose,,PREMARIN,The subject experienced application site pruritus. affecting the general disorders and administration site conditions. Severity: mild. Relationship to study drug: probable. Outcome: not recovered/not resolved. Treatment arm: xanomeline low dose.,False,1,15,5,0.524618402532161
CDISCPILOT01,AE,01-701-1444,1.0,E11,APPLICATION SITE ERYTHEMA,APPLICATION SITE ERYTHEMA,,APPLICATION SITE ERYTHEMA,,HLT_0617,,HLGT_0152,,GENERAL DISORDERS AND ADMINISTRATION SITE CONDITIONS,,GENERAL DISORDERS AND ADMINISTRATION SITE CONDITIONS,,MILD,N,,POSSIBLE,NOT RECOVERED/NOT RESOLVED,N,N,N,N,N,N,N,2013-01-31,2013-01-19,,15.0,,63.0,M,WHITE,Xan_Hi,Xanomeline High Dose,,ADVIL; BENADRYL; DOCUSATE SODIUM; METAMUCIL; PREDNISONE; TEMOVATE,The subject experienced application site erythema. affecting the general disorders and administration site conditions. Severity: mild. Relationship to study drug: possible. Outcome: not recovered/not resolved. Treatment arm: xanomeline high dose.,False,1,15,9,0.5428949548010651
CDISCPILOT01,AE,01-701-1444,4.0,E11,APPLICATION SITE ERYTHEMA,APPLICATION SITE ERYTHEMA,,APPLICATION SITE ERYTHEMA,,HLT_0617,,HLGT_0152,,GENERAL DISORDERS AND ADMINISTRATION SITE CONDITIONS,,GENERAL DISORDERS AND ADMINISTRATION SITE CONDITIONS,,MODERATE,N,,POSSIBLE,NOT RECOVERED/NOT RESOLVED,N,N,N,N,N,N,N,2013-02-13,2013-01-19,,15.0,,63.0,M,WHITE,Xan_Hi,Xanomeline High Dose,,ADVIL; BENADRYL; DOCUSATE SODIUM; METAMUCIL; PREDNISONE; TEMOVATE,The subject experienced application site erythema. affecting the general disorders and administration site conditions. Severity: moderate. Relationship to study drug: possible. Outcome: not recovered/not resolved. Treatment arm: xanomeline high dose.,False,2,15,9,0.8911228093235556
CDISCPILOT01,AE,01-701-1444,6.0,E15,APPLICATION SITE IRRITATION,APPLICATION SITE BURNING,,APPLICATION SITE IRRITATION,,HLT_0061,,HLGT_0346,,GENERAL DISORDERS AND ADMINISTRATION SITE CONDITIONS,,GENERAL DISORDERS AND ADMINISTRATION SITE CONDITIONS,,MODERATE,N,,PROBABLE,NOT RECOVERED/NOT RESOLVED,N,N,N,N,N,N,N,2013-02-13,2013-02-04,,31.0,,63.0,M,WHITE,Xan_Hi,Xanomeline High Dose,,ADVIL; BENADRYL; DOCUSATE SODIUM; METAMUCIL; PREDNISONE; TEMOVATE,The subject experienced application site irritation. affecting the general disorders and administration site conditions. Severity: moderate. Relationship to study drug: probable. Outcome: not recovered/not resolved. Treatment arm: xanomeline high dose.,False,2,15,8,0.7060352781010355
CDISCPILOT01,AE,01-701-1444,2.0,E12,APPLICATION SITE PRURITUS,APPLICATION SITE ITCHING,,APPLICATION SITE PRURITUS,,HLT_0317,,HLGT_0338,,GENERAL DISORDERS AND ADMINISTRATION SITE CONDITIONS,,GENERAL DISORDERS AND ADMINISTRATION SITE CONDITIONS,,MILD,N,,PROBABLE,NOT RECOVERED/NOT RESOLVED,N,N,N,N,N,N,N,2013-01-31,2013-01-19,,15.0,,63.0,M,WHITE,Xan_Hi,Xanomeline High Dose,,ADVIL; BENADRYL; DOCUSATE SODIUM; METAMUCIL; PREDNISONE; TEMOVATE,The subject experienced application site pruritus. affecting the general disorders and administration site conditions. Severity: mild. Relationship to study drug: probable. Outcome: not recovered/not resolved. Treatment arm: xanomeline high dose.,False,1,15,-1,0.0
CDISCPILOT01,AE,01-701-1444,5.0,E12,APPLICATION SITE PRURITUS,APPLICATION SITE ITCHING,,APPLICATION SITE PRURITUS,,HLT_0317,,HLGT_0338,,GENERAL DISORDERS AND ADMINISTRATION SITE CONDITIONS,,GENERAL DISORDERS AND ADMINISTRATION SITE CONDITIONS,,MODERATE,N,,PROBABLE,NOT RECOVERED/NOT RESOLVED,N,N,N,N,N,N,N,2013-02-13,2013-01-19,,15.0,,63.0,M,WHITE,Xan_Hi,Xanomeline High Dose,,ADVIL; BENADRYL; DOCUSATE SODIUM; METAMUCIL; PREDNISONE; TEMOVATE,The subject experienced application site pruritus. affecting the general disorders and administration site conditions. Severity: moderate. Relationship to study drug: probable. Outcome: not recovered/not resolved. Treatment arm: xanomeline high dose.,False,2,15,-1,0.0
CDISCPILOT01,AE,01-701-1444,7.0,E16,APPLICATION SITE VESICLES,APPLICATION SITE BLISTER,,APPLICATION SITE VESICLES,,HLT_0180,,HLGT_0576,,GENERAL DISORDERS AND ADMINISTRATION SITE CONDITIONS,,GENERAL DISORDERS AND ADMINISTRATION SITE CONDITIONS,,MODERATE,N,,PROBABLE,NOT RECOVERED/NOT RESOLVED,N,N,N,N,N,N,N,2013-02-13,2013-02-04,,31.0,,63.0,M,WHITE,Xan_Hi,Xanomeline High Dose,,ADVIL; BENADRYL; DOCUSATE SODIUM; METAMUCIL; PREDNISONE; TEMOVATE,The subject experienced application site vesicles. affecting the general disorders and administration site conditions. Severity: moderate. Relationship to study drug: probable. Outcome: not recovered/not resolved. Treatment arm: xanomeline high dose.,False,2,15,18,1.0
CDISCPILOT01,AE,01-701-1444,8.0,E14,PARAESTHESIA,TINGLING,,PARAESTHESIA,,HLT_0481,,HLGT_0534,,NERVOUS SYSTEM DISORDERS,,NERVOUS SYSTEM DISORDERS,,MILD,N,,NONE,RECOVERED/RESOLVED,N,N,N,N,N,N,N,2013-02-13,2013-02-08,2013-02-08,35.0,35.0,63.0,M,WHITE,Xan_Hi,Xanomeline High Dose,,ADVIL; BENADRYL; DOCUSATE SODIUM; METAMUCIL; PREDNISONE; TEMOVATE,The subject experienced paraesthesia. affecting the nervous system disorders. Severity: mild. Relationship to study drug: none. Outcome: recovered/resolved. Treatment arm: xanomeline high dose.,False,1,13,2,0.43351003260294924
CDISCPILOT01,AE,01-701-1444,3.0,E13,SALIVARY HYPERSECRETION,HYPERSALIVATION,,SALIVARY HYPERSECRETION,,HLT_0374,,HLGT_0488,,GASTROINTESTINAL DISORDERS,,GASTROINTESTINAL DISORDERS,,MILD,N,,POSSIBLE,NOT RECOVERED/NOT RESOLVED,N,N,N,N,N,N,N,2013-01-31,2013-01-19,,15.0,,63.0,M,WHITE,Xan_Hi,Xanomeline High Dose,,ADVIL; BENADRYL; DOCUSATE SODIUM; METAMUCIL; PREDNISONE; TEMOVATE,The subject experienced salivary hypersecretion. affecting the gastrointestinal disorders. Severity: mild. Relationship to study drug: possible. Outcome: not recovered/not resolved. Treatment arm: xanomeline high dose.,False,1,13,-1,0.0
CDISCPILOT01,AE,01-702-1082,9.0,E07,APPLICATION SITE IRRITATION,APPLICATION SITE IRRITATION,,APPLICATION SITE IRRITATION,,HLT_0061,,HLGT_0346,,GENERAL DISORDERS AND ADMINISTRATION SITE CONDITIONS,,GENERAL DISORDERS AND ADMINISTRATION SITE CONDITIONS,,MILD,N,,PROBABLE,RECOVERED/RESOLVED,N,N,N,N,N,N,N,2013-09-28,2013-09-09,2013-09-24,46.0,61.0,84.0,F,WHITE,Xan_Lo,Xanomeline Low Dose,,"HYDROCORTISONE, TOPICAL",The subject experienced application site irritation. affecting the general disorders and administration site conditions. Severity: mild. Relationship to study drug: probable. Outcome: recovered/resolved. Treatment arm: xanomeline low dose.,False,1,15,8,1.0
CDISCPILOT01,AE,01-702-1082,2.0,E03,NEUTROPHIL COUNT INCREASED,NEUTROPHIL COUNT INCREASED,,NEUTROPHIL COUNT INCREASED,,HLT_0326,,HLGT_0625,,INVESTIGATIONS,,INVESTIGATIONS,,MILD,N,,NONE,NOT RECOVERED/NOT RESOLVED,N,N,N,N,N,N,N,2013-07-24,2013-07-07,2013-07-26,-19.0,1.0,84.0,F,WHITE,Xan_Lo,Xanomeline Low Dose,,"HYDROCORTISONE, TOPICAL",The subject experienced neutrophil count increased. affecting the investigations. Severity: mild. Relationship to study drug: none. Outcome: not recovered/not resolved. Treatment arm: xanomeline low dose.,False,1,14,-1,0.0
CDISCPILOT01,AE,01-702-1082,6.0,E03,NEUTROPHIL COUNT INCREASED,NEUTROPHIL COUNT INCREASED,,NEUTROPHIL COUNT INCREASED,,HLT_0326,,HLGT_0625,,INVESTIGATIONS,,INVESTIGATIONS,,MILD,N,,NONE,RECOVERED/RESOLVED,N,N,N,N,N,N,N,2013-08-08,2013-07-07,2013-07-26,-19.0,1.0,84.0,F,WHITE,Xan_Lo,Xanomeline Low Dose,,"HYDROCORTISONE, TOPICAL",The subject experienced neutrophil count increased. affecting the investigations. Severity: mild. Relationship to study drug: none. Outcome: recovered/resolved. Treatment arm: xanomeline low dose.,False,1,14,28,0.8655966212380002
CDISCPILOT01,AE,01-702-1082,7.0,E06,RECTAL HAEMORRHAGE,RECTAL BLEEDING,,RECTAL HAEMORRHAGE,,HLT_0353,,HLGT_0755,,GASTROINTESTINAL DISORDERS,,GASTROINTESTINAL DISORDERS,,MILD,N,,NONE,NOT RECOVERED/NOT RESOLVED,N,N,N,N,N,N,N,2013-09-06,2013-09-02,2013-09-06,39.0,43.0,84.0,F,WHITE,Xan_Lo,Xanomeline Low Dose,,"HYDROCORTISONE, TOPICAL",The subject experienced rectal haemorrhage. affecting the gastrointestinal disorders. Severity: mild. Relationship to study drug: none. Outcome: not recovered/not resolved. Treatment arm: xanomeline low dose.,False,1,13,1,0.12941586761575452
CDISCPILOT01,AE,01-702-1082,8.0,E06,RECTAL HAEMORRHAGE,RECTAL BLEEDING,,RECTAL HAEMORRHAGE,,HLT_0353,,HLGT_0755,,GASTROINTESTINAL DISORDERS,,GASTROINTESTINAL DISORDERS,,MILD,N,,NONE,RECOVERED/RESOLVED,N,N,N,N,N,N,N,2013-09-28,2013-09-02,2013-09-06,39.0,43.0,84.0,F,WHITE,Xan_Lo,Xanomeline Low Dose,,"HYDROCORTISONE, TOPICAL",The subject experienced rectal haemorrhage. affecting the gastrointestinal disorders. Severity: mild. Relationship to study drug: none. Outcome: recovered/resolved. Treatment arm: xanomeline low dose.,False,1,13,1,0.2335713569263875
CDISCPILOT01,AE,01-702-1082,10.0,E08,SKIN IRRITATION,SKIN IRRITATION,,SKIN IRRITATION,,HLT_0583,,HLGT_0384,,SKIN AND SUBCUTANEOUS TISSUE DISORDERS,,SKIN AND SUBCUTANEOUS TISSUE DISORDERS,,MODERATE,N,,PROBABLE,RECOVERED/RESOLVED,N,N,N,N,N,N,N,2013-11-17,2013-10-12,2013-10-31,79.0,98.0,84.0,F,WHITE,Xan_Lo,Xanomeline Low Dose,,"HYDROCORTISONE, TOPICAL",The subject experienced skin irritation. affecting the skin and subcutaneous tissue disorders. Severity: moderate. Relationship to study drug: probable. Outcome: recovered/resolved. Treatment arm: xanomeline low dose.,False,2,14,3,1.0
CDISCPILOT01,AE,01-702-1082,3.0,E04,URINE ANALYSIS ABNORMAL,URINE ANALYSIS ABNORMAL,,URINE ANALYSIS ABNORMAL,,HLT_0783,,HLGT_0295,,INVESTIGATIONS,,INVESTIGATIONS,,MILD,N,,NONE,NOT RECOVERED/NOT RESOLVED,N,N,N,N,N,N,N,2013-07-24,2013-07-07,2013-07-24,-19.0,-2.0,84.0,F,WHITE,Xan_Lo,Xanomeline Low Dose,,"HYDROCORTISONE, TOPICAL",The subject experienced urine analysis abnormal. affecting the investigations. Severity: mild. Relationship to study drug: none. Outcome: not recovered/not resolved. Treatment arm: xanomeline low dose.,False,1,14,14,1.0
CDISCPILOT01,AE,01-702-1082,4.0,E04,URINE ANALYSIS ABNORMAL,URINE ANALYSIS ABNORMAL,,URINE ANALYSIS ABNORMAL,,HLT_0783,,HLGT_0295,,INVESTIGATIONS,,INVESTIGATIONS,,MILD,N,,NONE,RECOVERED/RESOLVED,N,N,N,N,N,N,N,2013-07-26,2013-07-07,2013-07-24,-19.0,-2.0,84.0,F,WHITE,Xan_Lo,Xanomeline Low Dose,,"HYDROCORTISONE, TOPICAL",The subject experienced urine analysis abnormal. affecting the investigations. Severity: mild. Relationship to study drug: none. Outcome: recovered/resolved. Treatment arm: xanomeline low dose.,False,1,14,14,0.4135217297241804
CDISCPILOT01,AE,01-702-1082,1.0,E02,WHITE BLOOD CELL COUNT INCREASED,WBC INCREASED,,WHITE BLOOD CELL COUNT INCREASED,,HLT_0417,,HLGT_0465,,INVESTIGATIONS,,INVESTIGATIONS,,MILD,N,,NONE,NOT RECOVERED/NOT RESOLVED,N,N,N,N,N,N,N,2013-07-24,2013-07-07,2013-07-26,-19.0,1.0,84.0,F,WHITE,Xan_Lo,Xanomeline Low Dose,,"HYDROCORTISONE, TOPICAL",The subject experienced white blood cell count increased. affecting the investigations. Severity: mild. Relationship to study drug: none. Outcome: not recovered/not resolved. Treatment arm: xanomeline low dose.,False,1,14,6,1.0
CDISCPILOT01,AE,01-702-1082,5.0,E02,WHITE BLOOD CELL COUNT INCREASED,WBC INCREASED,,WHITE BLOOD CELL COUNT INCREASED,,HLT_0417,,HLGT_0465,,INVESTIGATIONS,,INVESTIGATIONS,,MILD,N,,NONE,RECOVERED/RESOLVED,N,N,N,N,N,N,N,2013-08-08,2013-07-07,2013-07-26,-19.0,1.0,84.0,F,WHITE,Xan_Lo,Xanomeline Low Dose,,"HYDROCORTISONE, TOPICAL",The subject experienced white blood cell count increased. affecting the investigations. Severity: mild. Relationship to study drug: none. Outcome: recovered/resolved. Treatment arm: xanomeline low dose.,False,1,14,6,1.0
CDISCPILOT01,AE,01-703-1042,1.0,E04,DIARRHOEA,DIARRHEA,,DIARRHOEA,,HLT_0148,,HLGT_0588,,GASTROINTESTINAL DISORDERS,,GASTROINTESTINAL DISORDERS,,MILD,N,,POSSIBLE,RECOVERED/RESOLVED,N,N,N,N,N,N,N,2013-03-14,2013-03-04,2013-03-05,3.0,4.0,64.0,M,WHITE,Pbo,Placebo,,KAOPECTATE; NORVASC; VITAMIN C; VITAMIN E,The subject experienced diarrhoea. affecting the gastrointestinal disorders. Severity: mild. Relationship to study drug: possible. Outcome: recovered/resolved. Treatment arm: placebo.,False,1,12,1,0.622543039626331
CDISCPILOT01,AE,01-703-1042,2.0,E05,INSOMNIA,INSOMNIA,,INSOMNIA,,HLT_0297,,HLGT_0469,,PSYCHIATRIC DISORDERS,,PSYCHIATRIC DISORDERS,,MILD,N,,REMOTE,RECOVERED/RESOLVED,N,N,N,N,N,N,N,2013-03-14,2013-03-05,2013-03-06,4.0,5.0,64.0,M,WHITE,Pbo,Placebo,,KAOPECTATE; NORVASC; VITAMIN C; VITAMIN E,The subject experienced insomnia. affecting the psychiatric disorders. Severity: mild. Relationship to study drug: remote. Outcome: recovered/resolved. Treatment arm: placebo.,False,1,13,44,1.0
CDISCPILOT01,AE,01-703-1076,5.0,E09,APPLICATION SITE DERMATITIS,APPLICATION SITE RASH,,APPLICATION SITE DERMATITIS,,HLT_0343,,HLGT_0241,,GENERAL DISORDERS AND ADMINISTRATION SITE CONDITIONS,,GENERAL DISORDERS AND ADMINISTRATION SITE CONDITIONS,,MILD,N,,PROBABLE,NOT RECOVERED/NOT RESOLVED,N,N,N,N,N,N,N,2013-12-04,2013-11-23,,30.0,,69.0,M,WHITE,Xan_Hi,Xanomeline High Dose,,ASPIRIN; CORTISONE; LAC-HYDRIN; LIPITOR; LOPID; MEVACOR; TIMOPTIC,The subject experienced application site dermatitis. affecting the general disorders and administration site conditions. Severity: mild. Relationship to study drug: probable. Outcome: not recovered/not resolved. Treatment arm: xanomeline high dose.,False,1,14,10,0.35373230802563876
CDISCPILOT01,AE,01-703-1076,4.0,E08,APPLICATION SITE PRURITUS,APPLICATION SITE ITCHING,,APPLICATION SITE PRURITUS,,HLT_0317,,HLGT_0338,,GENERAL DISORDERS AND ADMINISTRATION SITE CONDITIONS,,GENERAL DISORDERS AND ADMINISTRATION SITE CONDITIONS,,MILD,N,,PROBABLE,NOT RECOVERED/NOT RESOLVED,N,N,N,N,N,N,N,2013-12-04,2013-11-23,,30.0,,69.0,M,WHITE,Xan_Hi,Xanomeline High Dose,,ASPIRIN; CORTISONE; LAC-HYDRIN; LIPITOR; LOPID; MEVACOR; TIMOPTIC,The subject experienced application site pruritus. affecting the general disorders and administration site conditions. Severity: mild. Relationship to study drug: probable. Outcome: not recovered/not resolved. Treatment arm: xanomeline high dose.,False,1,15,5,0.8483264149152984
CDISCPILOT01,AE,01-703-1076,7.0,E08,APPLICATION SITE PRURITUS,APPLICATION SITE ITCHING,,APPLICATION SITE PRURITUS,,HLT_0317,,HLGT_0338,,GENERAL DISORDERS AND ADMINISTRATION SITE CONDITIONS,,GENERAL DISORDERS AND ADMINISTRATION SITE CONDITIONS,,MODERATE,N,,PROBABLE,NOT RECOVERED/NOT RESOLVED,N,N,N,N,N,N,N,2013-12-17,2013-11-23,,30.0,,69.0,M,WHITE,Xan_Hi,Xanomeline High Dose,,ASPIRIN; CORTISONE; LAC-HYDRIN; LIPITOR; LOPID; MEVACOR; TIMOPTIC,The subject experienced application site pruritus. affecting the general disorders and administration site conditions. Severity: moderate. Relationship to study drug: probable. Outcome: not recovered/not resolved. Treatment arm: xanomeline high dose.,False,2,15,5,0.3670954206816304
CDISCPILOT01,AE,01-703-1076,2.0,E01,BENIGN PROSTATIC HYPERPLASIA,BENIGN PROSTATIC HYPERTROPHY,,BENIGN PROSTATIC HYPERPLASIA,,HLT_0215,,HLGT_0568,,REPRODUCTIVE SYSTEM AND BREAST DISORDERS,,REPRODUCTIVE SYSTEM AND BREAST DISORDERS,,MODERATE,N,,NONE,NOT RECOVERED/NOT RESOLVED,N,N,N,N,N,N,N,2013-11-20,2013-11-20,,27.0,,69.0,M,WHITE,Xan_Hi,Xanomeline High Dose,,ASPIRIN; CORTISONE; LAC-HYDRIN; LIPITOR; LOPID; MEVACOR; TIMOPTIC,The subject experienced benign prostatic hyperplasia. affecting the reproductive system and breast disorders. Severity: moderate. Relationship to study drug: none. Outcome: not recovered/not resolved. Treatment arm: xanomeline high dose.,False,2,15,40,1.0
CDISCPILOT01,AE,01-703-1076,1.0,E02,BIOPSY PROSTATE,BIOPSY OF PROSTATE,,BIOPSY PROSTATE,,HLT_0553,,HLGT_0725,,INVESTIGATIONS,,INVESTIGATIONS,,MODERATE,N,,NONE,RECOVERED/RESOLVED,N,N,N,N,N,N,N,2013-11-20,2013-11-16,2013-11-16,23.0,23.0,69.0,M,WHITE,Xan_Hi,Xanomeline High Dose,,ASPIRIN; CORTISONE; LAC-HYDRIN; LIPITOR; LOPID; MEVACOR; TIMOPTIC,The subject experienced biopsy prostate. affecting the investigations. Severity: moderate. Relationship to study drug: none. Outcome: recovered/resolved. Treatment arm: xanomeline high dose.,False,2,12,40,1.0
CDISCPILOT01,AE,01-703-1076,3.0,E05,HYPERCHOLESTEROLAEMIA,HYPERCHOLESTEROLEMIA,,HYPERCHOLESTEROLAEMIA,,HLT_0025,,HLGT_0703,,METABOLISM AND NUTRITION DISORDERS,,METABOLISM AND NUTRITION DISORDERS,,MODERATE,N,,NONE,NOT RECOVERED/NOT RESOLVED,N,N,N,N,N,N,N,2013-12-04,2007,,,,69.0,M,WHITE,Xan_Hi,Xanomeline High Dose,,ASPIRIN; CORTISONE; LAC-HYDRIN; LIPITOR; LOPID; MEVACOR; TIMOPTIC,The subject experienced hypercholesterolaemia. affecting the metabolism and nutrition disorders. Severity: moderate. Relationship to study drug: none. Outcome: not recovered/not resolved. Treatment arm: xanomeline high dose.,False,2,14,17,0.9315634506771239
CDISCPILOT01,AE,01-703-1076,6.0,E07,HYPERHIDROSIS,SWEATING,,HYPERHIDROSIS,,HLT_0587,,HLGT_0005,,SKIN AND SUBCUTANEOUS TISSUE DISORDERS,,SKIN AND SUBCUTANEOUS TISSUE DISORDERS,,MILD,N,,POSSIBLE,NOT RECOVERED/NOT RESOLVED,N,N,N,N,N,N,N,2013-12-04,2013-11-25,,32.0,,69.0,M,WHITE,Xan_Hi,Xanomeline High Dose,,ASPIRIN; CORTISONE; LAC-HYDRIN; LIPITOR; LOPID; MEVACOR; TIMOPTIC,The subject experienced hyperhidrosis. affecting the skin and subcutaneous tissue disorders. Severity: mild. Relationship to study drug: possible. Outcome: not recovered/not resolved. Treatment arm: xanomeline high dose.,False,1,14,25,0.3031393391126051
CDISCPILOT01,AE,01-703-1086,1.0,E01,APPLICATION SITE IRRITATION,APPLICATION SITE IRRITATION,,APPLICATION SITE IRRITATION,,HLT_0061,,HLGT_0346,,GENERAL DISORDERS AND ADMINISTRATION SITE CONDITIONS,,GENERAL DISORDERS AND ADMINISTRATION SITE CONDITIONS,,MILD,N,,PROBABLE,NOT RECOVERED/NOT RESOLVED,N,N,N,N,N,N,N,2012-09-16,2012-09-13,2013-01-02,12.0,123.0,71.0,M,WHITE,Xan_Lo,Xanomeline Low Dose,,CALAMINE; CORTISONE,The subject experienced application site irritation. affecting the general disorders and administration site conditions. Severity: mild. Relationship to study drug: probable. Outcome: not recovered/not resolved. Treatment arm: xanomeline low dose.,False,1,15,8,1.0
CDISCPILOT01,AE,01-703-1086,2.0,E01,APPLICATION SITE IRRITATION,APPLICATION SITE IRRITATION,,APPLICATION SITE IRRITATION,,HLT_0061,,HLGT_0346,,GENERAL DISORDERS AND ADMINISTRATION SITE CONDITIONS,,GENERAL DISORDERS AND ADMINISTRATION SITE CONDITIONS,,MODERATE,N,,PROBABLE,NOT RECOVERED/NOT RESOLVED,N,N,N,N,N,N,N,2012-09-30,2012-09-13,2013-01-02,12.0,123.0,71.0,M,WHITE,Xan_Lo,Xanomeline Low Dose,,CALAMINE; CORTISONE,The subject experienced application site irritation. affecting the general disorders and administration site conditions. Severity: moderate. Relationship to study drug: probable. Outcome: not recovered/not resolved. Treatment arm: xanomeline low dose.,False,2,15,8,0.972037601101034
CDISCPILOT01,AE,01-703-1086,3.0,E01,APPLICATION SITE IRRITATION,APPLICATION SITE IRRITATION,,APPLICATION SITE IRRITATION,,HLT_0061,,HLGT_0346,,GENERAL DISORDERS AND ADMINISTRATION SITE CONDITIONS,,GENERAL DISORDERS AND ADMINISTRATION SITE CONDITIONS,,SEVERE,N,,PROBABLE,NOT RECOVERED/NOT RESOLVED,N,N,N,N,N,N,N,2012-10-13,2012-09-13,2013-01-02,12.0,123.0,71.0,M,WHITE,Xan_Lo,Xanomeline Low Dose,,CALAMINE; CORTISONE,The subject experienced application site irritation. affecting the general disorders and administration site conditions. Severity: severe. Relationship to study drug: probable. Outcome: not recovered/not resolved. Treatment arm: xanomeline low dose.,False,3,14,8,0.8224966117163289
CDISCPILOT01,AE,01-703-1086,6.0,E01,APPLICATION SITE IRRITATION,APPLICATION SITE IRRITATION,,APPLICATION SITE IRRITATION,,HLT_0061,,HLGT_0346,,GENERAL DISORDERS AND ADMINISTRATION SITE CONDITIONS,,GENERAL DISORDERS AND ADMINISTRATION SITE CONDITIONS,,MILD,N,,PROBABLE,RECOVERED/RESOLVED,N,N,N,N,N,N,N,2013-03-26,2012-09-13,2013-01-02,12.0,123.0,71.0,M,WHITE,Xan_Lo,Xanomeline Low Dose,,CALAMINE; CORTISONE,The subject experienced application site irritation. affecting the general disorders and administration site conditions. Severity: mild. Relationship to study drug: probable. Outcome: recovered/resolved. Treatment arm: xanomeline low dose.,False,1,15,8,1.0
CDISCPILOT01,AE,01-703-1086,4.0,E02,CHILLS,CHILLS,,CHILLS,,HLT_0586,,HLGT_0161,,GENERAL DISORDERS AND ADMINISTRATION SITE CONDITIONS,,GENERAL DISORDERS AND ADMINISTRATION SITE CONDITIONS,,MILD,N,,POSSIBLE,NOT RECOVERED/NOT RESOLVED,N,N,N,N,N,N,N,2012-10-13,2012-10-09,2012-10-15,38.0,44.0,71.0,M,WHITE,Xan_Lo,Xanomeline Low Dose,,CALAMINE; CORTISONE,The subject experienced chills. affecting the general disorders and administration site conditions. Severity: mild. Relationship to study drug: possible. Outcome: not recovered/not resolved. Treatment arm: xanomeline low dose.,False,1,14,24,1.0
CDISCPILOT01,AE,01-703-1086,5.0,E02,CHILLS,CHILLS,,CHILLS,,HLT_0586,,HLGT_0161,,GENERAL DISORDERS AND ADMINISTRATION SITE CONDITIONS,,GENERAL DISORDERS AND ADMINISTRATION SITE CONDITIONS,,MILD,N,,POSSIBLE,RECOVERED/RESOLVED,N,N,N,N,N,N,N,2012-10-27,2012-10-09,2012-10-15,38.0,44.0,71.0,M,WHITE,Xan_Lo,Xanomeline Low Dose,,CALAMINE; CORTISONE,The subject experienced chills. affecting the general disorders and administration site conditions. Severity: mild. Relationship to study drug: possible. Outcome: recovered/resolved. Treatment arm: xanomeline low dose.,False,1,14,24,1.0
CDISCPILOT01,AE,01-703-1100,1.0,E04,APPLICATION SITE IRRITATION,APPLICATION SITE IRRITATION,,APPLICATION SITE IRRITATION,,HLT_0061,,HLGT_0346,,GENERAL DISORDERS AND ADMINISTRATION SITE CONDITIONS,,GENERAL DISORDERS AND ADMINISTRATION SITE CONDITIONS,,MODERATE,N,,PROBABLE,NOT RECOVERED/NOT RESOLVED,N,N,N,N,N,N,N,2013-04-12,2013-04-05,2013-04-16,24.0,35.0,84.0,F,WHITE,Pbo,Placebo,,CEPHALOSPORIN C; CORTISONE; ERYTHROMYCIN; IBUPROFEN; LEVOXYL; NEOSPORIN /USA/; VITAMIN B12,The subject experienced application site irritation. affecting the general disorders and administration site conditions. Severity: moderate. Relationship to study drug: probable. Outcome: not recovered/not resolved. Treatment arm: placebo.,False,2,14,20,1.0
CDISCPILOT01,AE,01-703-1100,2.0,E04,APPLICATION SITE IRRITATION,APPLICATION SITE IRRITATION,,APPLICATION SITE IRRITATION,,HLT_0061,,HLGT_0346,,GENERAL DISORDERS AND ADMINISTRATION SITE CONDITIONS,,GENERAL DISORDERS AND ADMINISTRATION SITE CONDITIONS,,MILD,N,,PROBABLE,NOT RECOVERED/NOT RESOLVED,N,N,N,N,N,N,N,2013-04-14,2013-04-05,2013-04-16,24.0,35.0,84.0,F,WHITE,Pbo,Placebo,,CEPHALOSPORIN C; CORTISONE; ERYTHROMYCIN; IBUPROFEN; LEVOXYL; NEOSPORIN /USA/; VITAMIN B12,The subject experienced application site irritation. affecting the general disorders and administration site conditions. Severity: mild. Relationship to study drug: probable. Outcome: not recovered/not resolved. Treatment arm: placebo.,False,1,14,20,0.8253535797444982
CDISCPILOT01,AE,01-703-1100,3.0,E04,APPLICATION SITE IRRITATION,APPLICATION SITE IRRITATION,,APPLICATION SITE IRRITATION,,HLT_0061,,HLGT_0346,,GENERAL DISORDERS AND ADMINISTRATION SITE CONDITIONS,,GENERAL DISORDERS AND ADMINISTRATION SITE CONDITIONS,,MILD,N,,PROBABLE,RECOVERED/RESOLVED,N,N,N,N,N,N,N,2013-04-24,2013-04-05,2013-04-16,24.0,35.0,84.0,F,WHITE,Pbo,Placebo,,CEPHALOSPORIN C; CORTISONE; ERYTHROMYCIN; IBUPROFEN; LEVOXYL; NEOSPORIN /USA/; VITAMIN B12,The subject experienced application site irritation. affecting the general disorders and administration site conditions. Severity: mild. Relationship to study drug: probable. Outcome: recovered/resolved. Treatment arm: placebo.,False,1,14,20,1.0
CDISCPILOT01,AE,01-703-1100,4.0,E06,CATARACT OPERATION,CATARACT EXTRACTION,,CATARACT OPERATION,,HLT_0432,,HLGT_0058,,SURGICAL AND MEDICAL PROCEDURES,,SURGICAL AND MEDICAL PROCEDURES,,MODERATE,N,,NONE,RECOVERED/RESOLVED,N,N,N,N,N,N,N,2013-05-08,2013-04-25,2013-04-25,44.0,44.0,84.0,F,WHITE,Pbo,Placebo,,CEPHALOSPORIN C; CORTISONE; ERYTHROMYCIN; IBUPROFEN; LEVOXYL; NEOSPORIN /USA/; VITAMIN B12,The subject experienced cataract operation. affecting the surgical and medical procedures. Severity: moderate. Relationship to study drug: none. Outcome: recovered/resolved. Treatment arm: placebo.,False,2,13,15,0.415830176830593
CDISCPILOT01,AE,01-703-1100,6.0,E07,OEDEMA PERIPHERAL,LEG EDEMA,,OEDEMA PERIPHERAL,,HLT_0661,,HLGT_0137,,GENERAL DISORDERS AND ADMINISTRATION SITE CONDITIONS,,GENERAL DISORDERS AND ADMINISTRATION SITE CONDITIONS,,MODERATE,N,,REMOTE,NOT RECOVERED/NOT RESOLVED,N,N,N,N,N,N,N,2013-07-31,2013-02-28,2013-09-14,-13.0,186.0,84.0,F,WHITE,Pbo,Placebo,,CEPHALOSPORIN C; CORTISONE; ERYTHROMYCIN; IBUPROFEN; LEVOXYL; NEOSPORIN /USA/; VITAMIN B12,The subject experienced oedema peripheral. affecting the general disorders and administration site conditions. Severity: moderate. Relationship to study drug: remote. Outcome: not recovered/not resolved. Treatment arm: placebo.,False,2,15,26,0.20692477229864148
CDISCPILOT01,AE,01-703-1100,8.0,E07,OEDEMA PERIPHERAL,LEG EDEMA,,OEDEMA PERIPHERAL,,HLT_0661,,HLGT_0137,,GENERAL DISORDERS AND ADMINISTRATION SITE CONDITIONS,,GENERAL DISORDERS AND ADMINISTRATION SITE CONDITIONS,,MODERATE,N,,REMOTE,RECOVERED/RESOLVED,N,N,N,N,N,N,N,2013-09-14,2013-02-28,2013-09-14,-13.0,186.0,84.0,F,WHITE,Pbo,Placebo,,CEPHALOSPORIN C; CORTISONE; ERYTHROMYCIN; IBUPROFEN; LEVOXYL; NEOSPORIN /USA/; VITAMIN B12,The subject experienced oedema peripheral. affecting the general disorders and administration site conditions. Severity: moderate. Relationship to study drug: remote. Outcome: recovered/resolved. Treatment arm: placebo.,False,2,15,26,0.3250061122883799
CDISCPILOT01,AE,01-703-1100,7.0,E09,OEDEMA PERIPHERAL,LEG EDEMA,,OEDEMA PERIPHERAL,,HLT_0661,,HLGT_0137,,GENERAL DISORDERS AND ADMINISTRATION SITE CONDITIONS,,GENERAL DISORDERS AND ADMINISTRATION SITE CONDITIONS,,MILD,N,,REMOTE,NOT RECOVERED/NOT RESOLVED,N,N,N,N,N,N,N,2013-07-31,2013-07-17,2013-09-14,127.0,186.0,84.0,F,WHITE,Pbo,Placebo,,CEPHALOSPORIN C; CORTISONE; ERYTHROMYCIN; IBUPROFEN; LEVOXYL; NEOSPORIN /USA/; VITAMIN B12,The subject experienced oedema peripheral. affecting the general disorders and administration site conditions. Severity: mild. Relationship to study drug: remote. Outcome: not recovered/not resolved. Treatment arm: placebo.,False,1,15,26,0.274993421392844
CDISCPILOT01,AE,01-703-1100,9.0,E09,OEDEMA PERIPHERAL,LEG EDEMA,,OEDEMA PERIPHERAL,,HLT_0661,,HLGT_0137,,GENERAL DISORDERS AND ADMINISTRATION SITE CONDITIONS,,GENERAL DISORDERS AND ADMINISTRATION SITE CONDITIONS,,MILD,N,,REMOTE,RECOVERED/RESOLVED,N,N,N,N,N,N,N,2013-09-14,2013-07-17,2013-09-14,127.0,186.0,84.0,F,WHITE,Pbo,Placebo,,CEPHALOSPORIN C; CORTISONE; ERYTHROMYCIN; IBUPROFEN; LEVOXYL; NEOSPORIN /USA/; VITAMIN B12,The subject experienced oedema peripheral. affecting the general disorders and administration site conditions. Severity: mild. Relationship to study drug: remote. Outcome: recovered/resolved. Treatment arm: placebo.,False,1,15,26,0.33149073686377656
CDISCPILOT01,AE,01-703-1100,5.0,E08,UPPER RESPIRATORY TRACT INFECTION,UPPER RESPIRATORY INFECTION,,UPPER RESPIRATORY TRACT INFECTION,,HLT_0520,,HLGT_0489,,INFECTIONS AND INFESTATIONS,,INFECTIONS AND INFESTATIONS,,MODERATE,N,,REMOTE,RECOVERED/RESOLVED,N,N,N,N,N,N,N,2013-06-05,2013-05-27,2013-06-03,76.0,83.0,84.0,F,WHITE,Pbo,Placebo,,CEPHALOSPORIN C; CORTISONE; ERYTHROMYCIN; IBUPROFEN; LEVOXYL; NEOSPORIN /USA/; VITAMIN B12,The subject experienced upper respiratory tract infection. affecting the infections and infestations. Severity: moderate. Relationship to study drug: remote. Outcome: recovered/resolved. Treatment arm: placebo.,False,2,14,-1,0.0
CDISCPILOT01,AE,01-703-1119,1.0,E04,APPLICATION SITE IRRITATION,APPLICATION SITE IRRITATION,,APPLICATION SITE IRRITATION,,HLT_0061,,HLGT_0346,,GENERAL DISORDERS AND ADMINISTRATION SITE CONDITIONS,,GENERAL DISORDERS AND ADMINISTRATION SITE CONDITIONS,,MODERATE,N,,PROBABLE,NOT RECOVERED/NOT RESOLVED,N,N,N,N,N,N,N,2013-03-21,2013-03-16,,25.0,,81.0,F,WHITE,Xan_Lo,Xanomeline Low Dose,,"ALLEGRA; HYDROCORTISONE, TOPICAL; NORVASC; PREMARIN; ZOCOR",The subject experienced application site irritation. affecting the general disorders and administration site conditions. Severity: moderate. Relationship to study drug: probable. Outcome: not recovered/not resolved. Treatment arm: xanomeline low dose.,False,2,15,8,0.6335738566754149
CDISCPILOT01,AE,01-703-1119,2.0,E04,APPLICATION SITE IRRITATION,APPLICATION SITE IRRITATION,,APPLICATION SITE IRRITATION,,HLT_0061,,HLGT_0346,,GENERAL DISORDERS AND ADMINISTRATION SITE CONDITIONS,,GENERAL DISORDERS AND ADMINISTRATION SITE CONDITIONS,,SEVERE,N,,PROBABLE,NOT RECOVERED/NOT RESOLVED,N,N,N,N,N,N,N,2013-05-17,2013-03-16,,25.0,,81.0,F,WHITE,Xan_Lo,Xanomeline Low Dose,,"ALLEGRA; HYDROCORTISONE, TOPICAL; NORVASC; PREMARIN; ZOCOR",The subject experienced application site irritation. affecting the general disorders and administration site conditions. Severity: severe. Relationship to study drug: probable. Outcome: not recovered/not resolved. Treatment arm: xanomeline low dose.,False,3,14,8,1.0
CDISCPILOT01,AE,01-703-1119,3.0,E05,PRURITUS,ITCHING,,PRURITUS,,HLT_0778,,HLGT_0695,,SKIN AND SUBCUTANEOUS TISSUE DISORDERS,,SKIN AND SUBCUTANEOUS TISSUE DISORDERS,,MODERATE,N,,PROBABLE,NOT RECOVERED/NOT RESOLVED,N,N,N,N,N,N,N,2013-05-17,2013-05-04,,74.0,,81.0,F,WHITE,Xan_Lo,Xanomeline Low Dose,,"ALLEGRA; HYDROCORTISONE, TOPICAL; NORVASC; PREMARIN; ZOCOR",The subject experienced pruritus. affecting the skin and subcutaneous tissue disorders. Severity: moderate. Relationship to study drug: probable. Outcome: not recovered/not resolved. Treatment arm: xanomeline low dose.,False,2,14,0,1.0
CDISCPILOT01,AE,01-703-1119,4.0,E05,PRURITUS,ITCHING,,PRURITUS,,HLT_0778,,HLGT_0695,,SKIN AND SUBCUTANEOUS TISSUE DISORDERS,,SKIN AND SUBCUTANEOUS TISSUE DISORDERS,,SEVERE,N,,PROBABLE,NOT RECOVERED/NOT RESOLVED,N,N,N,N,N,N,N,2013-06-13,2013-05-04,,74.0,,81.0,F,WHITE,Xan_Lo,Xanomeline Low Dose,,"ALLEGRA; HYDROCORTISONE, TOPICAL; NORVASC; PREMARIN; ZOCOR",The subject experienced pruritus. affecting the skin and subcutaneous tissue disorders. Severity: severe. Relationship to study drug: probable. Outcome: not recovered/not resolved. Treatment arm: xanomeline low dose.,False,3,13,0,0.25910593151599576
CDISCPILOT01,AE,01-703-1175,1.0,E01,ATRIOVENTRICULAR BLOCK SECOND DEGREE,HEART BLOCK SECOND DEGREE,,ATRIOVENTRICULAR BLOCK SECOND DEGREE,,HLT_0415,,HLGT_0086,,CARDIAC DISORDERS,,CARDIAC DISORDERS,,SEVERE,N,,NONE,NOT RECOVERED/NOT RESOLVED,N,N,N,N,N,N,N,2013-12-18,2013-12-18,,-2.0,,75.0,M,WHITE,Pbo,Placebo,,,The subject experienced atrioventricular block second degree. affecting the cardiac disorders. Severity: severe. Relationship to study drug: none. Outcome: not recovered/not resolved. Treatment arm: placebo.,False,3,11,35,1.0
CDISCPILOT01,AE,01-703-1182,1.0,E05,APPLICATION SITE ERYTHEMA,APPLICATION SITE REDNESS,,APPLICATION SITE ERYTHEMA,,HLT_0617,,HLGT_0152,,GENERAL DISORDERS AND ADMINISTRATION SITE CONDITIONS,,GENERAL DISORDERS AND ADMINISTRATION SITE CONDITIONS,,MILD,N,,POSSIBLE,NOT RECOVERED/NOT RESOLVED,N,N,N,N,N,N,N,2013-10-31,2013-10-31,,15.0,,84.0,M,WHITE,Xan_Lo,Xanomeline Low Dose,,FUROSEMIDE; LESCOL; PREDNISONE; PRINIVIL,The subject experienced application site erythema. affecting the general disorders and administration site conditions. Severity: mild. Relationship to study drug: possible. Outcome: not recovered/not resolved. Treatment arm: xanomeline low dose.,False,1,15,9,0.28738207442415864
CDISCPILOT01,AE,01-703-1182,2.0,E05,APPLICATION SITE ERYTHEMA,APPLICATION SITE REDNESS,,APPLICATION SITE ERYTHEMA,,HLT_0617,,HLGT_0152,,GENERAL DISORDERS AND ADMINISTRATION SITE CONDITIONS,,GENERAL DISORDERS AND ADMINISTRATION SITE CONDITIONS,,MODERATE,N,,POSSIBLE,NOT RECOVERED/NOT RESOLVED,N,N,N,N,N,N,N,2013-11-28,2013-10-31,,15.0,,84.0,M,WHITE,Xan_Lo,Xanomeline Low Dose,,FUROSEMIDE; LESCOL; PREDNISONE; PRINIVIL,The subject experienced application site erythema. affecting the general disorders and administration site conditions. Severity: moderate. Relationship to study drug: possible. Outcome: not recovered/not resolved. Treatment arm: xanomeline low dose.,False,2,15,9,0.5019254420196808
CDISCPILOT01,AE,01-703-1182,3.0,E07,SOMNOLENCE,DROWSINESS,,SOMNOLENCE,,HLT_0160,,HLGT_0254,,NERVOUS SYSTEM DISORDERS,,NERVOUS SYSTEM DISORDERS,,MILD,N,,REMOTE,NOT RECOVERED/NOT RESOLVED,N,N,N,N,N,N,N,2013-11-28,2013-11-22,,37.0,,84.0,M,WHITE,Xan_Lo,Xanomeline Low Dose,,FUROSEMIDE; LESCOL; PREDNISONE; PRINIVIL,The subject experienced somnolence. affecting the nervous system disorders. Severity: mild. Relationship to study drug: remote. Outcome: not recovered/not resolved. Treatment arm: xanomeline low dose.,False,1,14,19,1.0
CDISCPILOT01,AE,01-703-1182,4.0,E07,SOMNOLENCE,DROWSINESS,,SOMNOLENCE,,HLT_0160,,HLGT_0254,,NERVOUS SYSTEM DISORDERS,,NERVOUS SYSTEM DISORDERS,,MODERATE,N,,REMOTE,NOT RECOVERED/NOT RESOLVED,N,N,N,N,N,N,N,2013-12-12,2013-11-22,,37.0,,84.0,M,WHITE,Xan_Lo,Xanomeline Low Dose,,FUROSEMIDE; LESCOL; PREDNISONE; PRINIVIL,The subject experienced somnolence. affecting the nervous system disorders. Severity: moderate. Relationship to study drug: remote. Outcome: not recovered/not resolved. Treatment arm: xanomeline low dose.,False,2,14,19,1.0
CDISCPILOT01,AE,01-703-1210,2.0,E04,DECREASED APPETITE,DECREASED APPETITE,,DECREASED APPETITE,,HLT_0574,,HLGT_0231,,METABOLISM AND NUTRITION DISORDERS,,METABOLISM AND NUTRITION DISORDERS,,MILD,N,,POSSIBLE,NOT RECOVERED/NOT RESOLVED,N,N,N,N,N,N,N,2013-05-10,2013-05-04,,50.0,,72.0,F,WHITE,Pbo,Placebo,,LASIX,The subject experienced decreased appetite. affecting the metabolism and nutrition disorders. Severity: mild. Relationship to study drug: possible. Outcome: not recovered/not resolved. Treatment arm: placebo.,False,1,13,17,1.0
CDISCPILOT01,AE,01-703-1210,3.0,E04,DECREASED APPETITE,DECREASED APPETITE,,DECREASED APPETITE,,HLT_0574,,HLGT_0231,,METABOLISM AND NUTRITION DISORDERS,,METABOLISM AND NUTRITION DISORDERS,,MODERATE,N,,POSSIBLE,NOT RECOVERED/NOT RESOLVED,N,N,N,N,N,N,N,2013-08-24,2013-05-04,,50.0,,72.0,F,WHITE,Pbo,Placebo,,LASIX,The subject experienced decreased appetite. affecting the metabolism and nutrition disorders. Severity: moderate. Relationship to study drug: possible. Outcome: not recovered/not resolved. Treatment arm: placebo.,False,2,13,17,0.8396414712736023
CDISCPILOT01,AE,01-703-1210,1.0,E01,DISORIENTATION,DISORIENTATION,,DISORIENTATION,,HLT_0299,,HLGT_0307,,PSYCHIATRIC DISORDERS,,PSYCHIATRIC DISORDERS,,MILD,N,,REMOTE,NOT RECOVERED/NOT RESOLVED,N,N,N,N,N,N,N,2013-04-12,2013-04-02,,18.0,,72.0,F,WHITE,Pbo,Placebo,,LASIX,The subject experienced disorientation. affecting the psychiatric disorders. Severity: mild. Relationship to study drug: remote. Outcome: not recovered/not resolved. Treatment arm: placebo.,False,1,13,11,1.0
CDISCPILOT01,AE,01-703-1258,4.0,E08,APPLICATION SITE DERMATITIS,APPLICATION SITE RASH,,APPLICATION SITE DERMATITIS,,HLT_0343,,HLGT_0241,,GENERAL DISORDERS AND ADMINISTRATION SITE CONDITIONS,,GENERAL DISORDERS AND ADMINISTRATION SITE CONDITIONS,,MILD,N,,PROBABLE,NOT RECOVERED/NOT RESOLVED,N,N,N,N,N,N,N,2012-09-04,2012-09-04,2013-01-25,47.0,190.0,78.0,F,WHITE,Xan_Hi,Xanomeline High Dose,,ALEVE; CALTRATE; HYDROCORTISONE; NORVASC; TIMOPTIC; VITAMIN E,The subject experienced application site dermatitis. affecting the general disorders and administration site conditions. Severity: mild. Relationship to study drug: probable. Outcome: not recovered/not resolved. Treatment arm: xanomeline high dose.,False,1,14,10,0.41993277154651965
CDISCPILOT01,AE,01-703-1258,6.0,E08,APPLICATION SITE DERMATITIS,APPLICATION SITE RASH,,APPLICATION SITE DERMATITIS,,HLT_0343,,HLGT_0241,,GENERAL DISORDERS AND ADMINISTRATION SITE CONDITIONS,,GENERAL DISORDERS AND ADMINISTRATION SITE CONDITIONS,,MODERATE,N,,PROBABLE,NOT RECOVERED/NOT RESOLVED,N,N,N,N,N,N,N,2012-09-14,2012-09-04,2013-01-25,47.0,190.0,78.0,F,WHITE,Xan_Hi,Xanomeline High Dose,,ALEVE; CALTRATE; HYDROCORTISONE; NORVASC; TIMOPTIC; VITAMIN E,The subject experienced application site dermatitis. affecting the general disorders and administration site conditions. Severity: moderate. Relationship to study drug: probable. Outcome: not recovered/not resolved. Treatment arm: xanomeline high dose.,False,2,14,10,0.8395120492130713
CDISCPILOT01,AE,01-703-1258,7.0,E08,APPLICATION SITE DERMATITIS,APPLICATION SITE RASH,,APPLICATION SITE DERMATITIS,,HLT_0343,,HLGT_0241,,GENERAL DISORDERS AND ADMINISTRATION SITE CONDITIONS,,GENERAL DISORDERS AND ADMINISTRATION SITE CONDITIONS,,MILD,N,,PROBABLE,RECOVERED/RESOLVED,N,N,N,N,N,N,N,2013-01-28,2012-09-04,2013-01-25,47.0,190.0,78.0,F,WHITE,Xan_Hi,Xanomeline High Dose,,ALEVE; CALTRATE; HYDROCORTISONE; NORVASC; TIMOPTIC; VITAMIN E,The subject experienced application site dermatitis. affecting the general disorders and administration site conditions. Severity: mild. Relationship to study drug: probable. Outcome: recovered/resolved. Treatment arm: xanomeline high dose.,False,1,14,10,0.09989992646156151
CDISCPILOT01,AE,01-703-1258,2.0,E06,DIZZINESS,DIZZINESS,,DIZZINESS,,HLT_0619,,HLGT_0751,,NERVOUS SYSTEM DISORDERS,,NERVOUS SYSTEM DISORDERS,,MODERATE,N,,NONE,NOT RECOVERED/NOT RESOLVED,N,N,N,N,N,N,N,2012-09-04,2001,,,,78.0,F,WHITE,Xan_Hi,Xanomeline High Dose,,ALEVE; CALTRATE; HYDROCORTISONE; NORVASC; TIMOPTIC; VITAMIN E,The subject experienced dizziness. affecting the nervous system disorders. Severity: moderate. Relationship to study drug: none. Outcome: not recovered/not resolved. Treatment arm: xanomeline high dose.,False,2,13,2,1.0
CDISCPILOT01,AE,01-703-1258,5.0,E06,DIZZINESS,DIZZINESS,,DIZZINESS,,HLT_0619,,HLGT_0751,,NERVOUS SYSTEM DISORDERS,,NERVOUS SYSTEM DISORDERS,,MILD,N,,NONE,NOT RECOVERED/NOT RESOLVED,N,N,N,N,N,N,N,2012-09-14,2001,,,,78.0,F,WHITE,Xan_Hi,Xanomeline High Dose,,ALEVE; CALTRATE; HYDROCORTISONE; NORVASC; TIMOPTIC; VITAMIN E,The subject experienced dizziness. affecting the nervous system disorders. Severity: mild. Relationship to study drug: none. Outcome: not recovered/not resolved. Treatment arm: xanomeline high dose.,False,1,13,2,1.0
CDISCPILOT01,AE,01-703-1258,1.0,E07,UPPER RESPIRATORY TRACT INFECTION,UPPER RESPIRATORY INFECTION,,UPPER RESPIRATORY TRACT INFECTION,,HLT_0520,,HLGT_0489,,INFECTIONS AND INFESTATIONS,,INFECTIONS AND INFESTATIONS,,MILD,N,,NONE,NOT RECOVERED/NOT RESOLVED,N,N,N,N,N,N,N,2012-08-17,2012-08-11,2012-08-19,23.0,31.0,78.0,F,WHITE,Xan_Hi,Xanomeline High Dose,,ALEVE; CALTRATE; HYDROCORTISONE; NORVASC; TIMOPTIC; VITAMIN E,The subject experienced upper respiratory tract infection. affecting the infections and infestations. Severity: mild. Relationship to study drug: none. Outcome: not recovered/not resolved. Treatment arm: xanomeline high dose.,False,1,14,6,0.4422175633266006
CDISCPILOT01,AE,01-703-1258,3.0,E07,UPPER RESPIRATORY TRACT INFECTION,UPPER RESPIRATORY INFECTION,,UPPER RESPIRATORY TRACT INFECTION,,HLT_0520,,HLGT_0489,,INFECTIONS AND INFESTATIONS,,INFECTIONS AND INFESTATIONS,,MILD,N,,NONE,RECOVERED/RESOLVED,N,N,N,N,N,N,N,2012-09-04,2012-08-11,2012-08-19,23.0,31.0,78.0,F,WHITE,Xan_Hi,Xanomeline High Dose,,ALEVE; CALTRATE; HYDROCORTISONE; NORVASC; TIMOPTIC; VITAMIN E,The subject experienced upper respiratory tract infection. affecting the infections and infestations. Severity: mild. Relationship to study drug: none. Outcome: recovered/resolved. Treatment arm: xanomeline high dose.,False,1,14,6,1.0
CDISCPILOT01,AE,01-703-1295,1.0,E06,ARTHRITIS,ARTHRITIS,,ARTHRITIS,,HLT_0019,,HLGT_0587,,MUSCULOSKELETAL AND CONNECTIVE TISSUE DISORDERS,,MUSCULOSKELETAL AND CONNECTIVE TISSUE DISORDERS,,MODERATE,N,,NONE,NOT RECOVERED/NOT RESOLVED,N,N,N,N,N,N,N,2014-01-01,2013-12-28,,38.0,,88.0,F,WHITE,Xan_Hi,Xanomeline High Dose,,FERROUS GLUCONATE; MULTIVITAMIN; OS-CAL; PERI-COLACE; SYNTHROID; TYLENOL,The subject experienced arthritis. affecting the musculoskeletal and connective tissue disorders. Severity: moderate. Relationship to study drug: none. Outcome: not recovered/not resolved. Treatment arm: xanomeline high dose.,False,2,14,12,1.0
CDISCPILOT01,AE,01-703-1299,3.0,E01,GLAUCOMA,GLAUCOMA,,GLAUCOMA,,HLT_0556,,HLGT_0734,,EYE DISORDERS,,EYE DISORDERS,,MODERATE,N,,NONE,NOT RECOVERED/NOT RESOLVED,N,N,N,N,N,N,N,2013-03-01,1992,,,,81.0,F,WHITE,Pbo,Placebo,,TIMOPTIC,The subject experienced glaucoma. affecting the eye disorders. Severity: moderate. Relationship to study drug: none. Outcome: not recovered/not resolved. Treatment arm: placebo.,False,2,12,15,0.4853290349418879
CDISCPILOT01,AE,01-703-1299,4.0,E05,HYPOTENSION,HYPOTENSION,,HYPOTENSION,,HLT_0761,,HLGT_0412,,VASCULAR DISORDERS,,VASCULAR DISORDERS,,MILD,N,,REMOTE,NOT RECOVERED/NOT RESOLVED,N,N,N,N,N,N,N,2013-03-01,2013-03-01,,171.0,,81.0,F,WHITE,Pbo,Placebo,,TIMOPTIC,The subject experienced hypotension. affecting the vascular disorders. Severity: mild. Relationship to study drug: remote. Outcome: not recovered/not resolved. Treatment arm: placebo.,False,1,13,33,1.0
CDISCPILOT01,AE,01-703-1299,6.0,E05,HYPOTENSION,HYPOTENSION,,HYPOTENSION,,HLT_0761,,HLGT_0412,,VASCULAR DISORDERS,,VASCULAR DISORDERS,,MODERATE,N,,REMOTE,NOT RECOVERED/NOT RESOLVED,N,N,N,N,N,N,N,2013-03-13,2013-03-01,,171.0,,81.0,F,WHITE,Pbo,Placebo,,TIMOPTIC,The subject experienced hypotension. affecting the vascular disorders. Severity: moderate. Relationship to study drug: remote. Outcome: not recovered/not resolved. Treatment arm: placebo.,False,2,13,33,1.0
CDISCPILOT01,AE,01-703-1299,8.0,E07,MYOCARDIAL INFARCTION,MYOCARDIAL INFARCTION,,MYOCARDIAL INFARCTION,,HLT_0649,,HLGT_0688,,CARDIAC DISORDERS,,CARDIAC DISORDERS,,MODERATE,N,,REMOTE,NOT RECOVERED/NOT RESOLVED,N,N,N,N,N,N,N,2013-03-13,2013-03-13,,183.0,,81.0,F,WHITE,Pbo,Placebo,,TIMOPTIC,The subject experienced myocardial infarction. affecting the cardiac disorders. Severity: moderate. Relationship to study drug: remote. Outcome: not recovered/not resolved. Treatment arm: placebo.,False,2,13,4,0.1558380214043569
CDISCPILOT01,AE,01-703-1299,5.0,E06,TACHYCARDIA,TACHYCARDIA,,TACHYCARDIA,,HLT_0082,,HLGT_0574,,CARDIAC DISORDERS,,CARDIAC DISORDERS,,MILD,N,,REMOTE,NOT RECOVERED/NOT RESOLVED,N,N,N,N,N,N,N,2013-03-01,2013-03-01,,171.0,,81.0,F,WHITE,Pbo,Placebo,,TIMOPTIC,The subject experienced tachycardia. affecting the cardiac disorders. Severity: mild. Relationship to study drug: remote. Outcome: not recovered/not resolved. Treatment arm: placebo.,False,1,13,4,1.0
CDISCPILOT01,AE,01-703-1299,7.0,E06,TACHYCARDIA,TACHYCARDIA,,TACHYCARDIA,,HLT_0082,,HLGT_0574,,CARDIAC DISORDERS,,CARDIAC DISORDERS,,MODERATE,N,,REMOTE,NOT RECOVERED/NOT RESOLVED,N,N,N,N,N,N,N,2013-03-13,2013-03-01,,171.0,,81.0,F,WHITE,Pbo,Placebo,,TIMOPTIC,The subject experienced tachycardia. affecting the cardiac disorders. Severity: moderate. Relationship to study drug: remote. Outcome: not recovered/not resolved. Treatment arm: placebo.,False,2,13,4,1.0
CDISCPILOT01,AE,01-703-1299,1.0,E02,UPPER RESPIRATORY TRACT INFECTION,UPPER RESPIRATORY INFECTION,,UPPER RESPIRATORY TRACT INFECTION,,HLT_0520,,HLGT_0489,,INFECTIONS AND INFESTATIONS,,INFECTIONS AND INFESTATIONS,,MILD,N,,NONE,NOT RECOVERED/NOT RESOLVED,N,N,N,N,N,N,N,2012-09-28,2012-09-27,2012-10-06,16.0,25.0,81.0,F,WHITE,Pbo,Placebo,,TIMOPTIC,The subject experienced upper respiratory tract infection. affecting the infections and infestations. Severity: mild. Relationship to study drug: none. Outcome: not recovered/not resolved. Treatment arm: placebo.,False,1,13,6,0.6127409388032953
CDISCPILOT01,AE,01-703-1299,2.0,E02,UPPER RESPIRATORY TRACT INFECTION,UPPER RESPIRATORY INFECTION,,UPPER RESPIRATORY TRACT INFECTION,,HLT_0520,,HLGT_0489,,INFECTIONS AND INFESTATIONS,,INFECTIONS AND INFESTATIONS,,MILD,N,,NONE,RECOVERED/RESOLVED,N,N,N,N,N,N,N,2012-10-10,2012-09-27,2012-10-06,16.0,25.0,81.0,F,WHITE,Pbo,Placebo,,TIMOPTIC,The subject experienced upper respiratory tract infection. affecting the infections and infestations. Severity: mild. Relationship to study drug: none. Outcome: recovered/resolved. Treatment arm: placebo.,False,1,13,6,1.0
CDISCPILOT01,AE,01-703-1335,1.0,E01,ATRIOVENTRICULAR BLOCK SECOND DEGREE,AV BLOCK SECOND DEGREE,,ATRIOVENTRICULAR BLOCK SECOND DEGREE,,HLT_0415,,HLGT_0086,,CARDIAC DISORDERS,,CARDIAC DISORDERS,,MILD,N,,NONE,NOT RECOVERED/NOT RESOLVED,N,N,N,N,N,N,N,2014-03-15,2014-03-15,2014-03-30,-2.0,14.0,67.0,F,BLACK OR AFRICAN AMERICAN,Xan_Hi,Xanomeline High Dose,,,The subject experienced atrioventricular block second degree. affecting the cardiac disorders. Severity: mild. Relationship to study drug: none. Outcome: not recovered/not resolved. Treatment arm: xanomeline high dose.,False,1,13,35,1.0
CDISCPILOT01,AE,01-703-1335,2.0,E01,ATRIOVENTRICULAR BLOCK SECOND DEGREE,AV BLOCK SECOND DEGREE,,ATRIOVENTRICULAR BLOCK SECOND DEGREE,,HLT_0415,,HLGT_0086,,CARDIAC DISORDERS,,CARDIAC DISORDERS,,MILD,N,,NONE,RECOVERED/RESOLVED,N,N,N,N,N,N,N,2014-03-31,2014-03-15,2014-03-30,-2.0,14.0,67.0,F,BLACK OR AFRICAN AMERICAN,Xan_Hi,Xanomeline High Dose,,,The subject experienced atrioventricular block second degree. affecting the cardiac disorders. Severity: mild. Relationship to study drug: none. Outcome: recovered/resolved. Treatment arm: xanomeline high dose.,False,1,13,35,0.8321333221059621
CDISCPILOT01,AE,01-703-1403,4.0,E03,CHEST DISCOMFORT,CHEST TIGHTNESS,,CHEST DISCOMFORT,,HLT_0593,,HLGT_0441,,GENERAL DISORDERS AND ADMINISTRATION SITE CONDITIONS,,GENERAL DISORDERS AND ADMINISTRATION SITE CONDITIONS,,MILD,N,,PROBABLE,RECOVERED/RESOLVED,N,N,N,N,N,N,N,2012-12-19,2012-12-15,2012-12-16,4.0,5.0,67.0,M,WHITE,Xan_Hi,Xanomeline High Dose,,CIPRO,The subject experienced chest discomfort. affecting the general disorders and administration site conditions. Severity: mild. Relationship to study drug: probable. Outcome: recovered/resolved. Treatment arm: xanomeline high dose.,False,1,14,4,0.18054375485857443
CDISCPILOT01,AE,01-703-1403,2.0,E01,DIARRHOEA,DIARRHEA,,DIARRHOEA,,HLT_0148,,HLGT_0588,,GASTROINTESTINAL DISORDERS,,GASTROINTESTINAL DISORDERS,,MODERATE,N,,PROBABLE,RECOVERED/RESOLVED,N,N,N,N,N,N,N,2012-12-19,2012-12-13,2012-12-14,2.0,3.0,67.0,M,WHITE,Xan_Hi,Xanomeline High Dose,,CIPRO,The subject experienced diarrhoea. affecting the gastrointestinal disorders. Severity: moderate. Relationship to study drug: probable. Outcome: recovered/resolved. Treatment arm: xanomeline high dose.,False,2,13,1,1.0
CDISCPILOT01,AE,01-703-1403,3.0,E02,VOMITING,VOMITING,,VOMITING,,HLT_0016,,HLGT_0350,,GASTROINTESTINAL DISORDERS,,GASTROINTESTINAL DISORDERS,,MODERATE,N,,PROBABLE,RECOVERED/RESOLVED,N,N,N,N,N,N,N,2012-12-19,2012-12-13,2012-12-14,2.0,3.0,67.0,M,WHITE,Xan_Hi,Xanomeline High Dose,,CIPRO,The subject experienced vomiting. affecting the gastrointestinal disorders. Severity: moderate. Relationship to study drug: probable. Outcome: recovered/resolved. Treatment arm: xanomeline high dose.,False,2,13,1,0.2556244084376488
CDISCPILOT01,AE,01-703-1403,1.0,E07,WEIGHT DECREASED,WEIGHT LOSS,,WEIGHT DECREASED,,HLT_0158,,HLGT_0778,,INVESTIGATIONS,,INVESTIGATIONS,,MODERATE,N,,NONE,NOT RECOVERED/NOT RESOLVED,N,N,N,N,N,N,N,2012-12-19,2012-12-12,2012-12-19,1.0,8.0,67.0,M,WHITE,Xan_Hi,Xanomeline High Dose,,CIPRO,The subject experienced weight decreased. affecting the investigations. Severity: moderate. Relationship to study drug: none. Outcome: not recovered/not resolved. Treatment arm: xanomeline high dose.,False,2,14,6,0.5968906728672824
CDISCPILOT01,AE,01-703-1403,5.0,E07,WEIGHT DECREASED,WEIGHT LOSS,,WEIGHT DECREASED,,HLT_0158,,HLGT_0778,,INVESTIGATIONS,,INVESTIGATIONS,,MODERATE,N,,NONE,RECOVERED/RESOLVED,N,N,N,N,N,N,N,2013-01-08,2012-12-12,2012-12-19,1.0,8.0,67.0,M,WHITE,Xan_Hi,Xanomeline High Dose,,CIPRO,The subject experienced weight decreased. affecting the investigations. Severity: moderate. Relationship to study drug: none. Outcome: recovered/resolved. Treatment arm: xanomeline high dose.,False,2,14,6,0.8209482854568161
